time,seconds_elapsed,z,y,x
1775714561855355100,0.059355224609375,-0.379638671875,-1.065643310546875,0.0784454345703125
1775714561865371100,0.06937109375,-0.3782501220703125,-1.0435791015625,0.1008453369140625
1775714561875388200,0.07938818359375,-0.35443115234375,-1.04443359375,0.1332855224609375
1775714561885404200,0.089404052734375,-0.349609375,-1.0327606201171875,0.12451171875
1775714561895420200,0.099420166015625,-0.3172149658203125,-0.9968719482421875,0.0723114013671875
1775714561905437200,0.109437255859375,-0.2957763671875,-0.9716033935546875,0.0400238037109375
1775714561915453200,0.119453125,-0.2959442138671875,-0.9809722900390625,0.0411529541015625
1775714561925470000,0.129469970703125,-0.301727294921875,-0.9952239990234375,0.013336181640625
1775714561935486000,0.13948583984375,-0.4048614501953125,-1.0221710205078125,0.0020599365234375
1775714561945502700,0.149502685546875,-0.4144134521484375,-1.0411529541015625,-0.01055908203125
1775714561955518700,0.159518798828125,-0.398651123046875,-1.0414581298828125,-0.0286102294921875
1775714561965534700,0.16953466796875,-0.470306396484375,-1.0310516357421875,-0.0414276123046875
1775714561975551700,0.1795517578125,-0.5556640625,-0.9898223876953125,-0.0606536865234375
1775714561985567700,0.189567626953125,-0.5695037841796875,-0.9525299072265625,-0.1348724365234375
1775714561995583700,0.199583740234375,-0.5999298095703125,-0.9801025390625,-0.2457122802734375
1775714562005600800,0.209600830078125,-0.602783203125,-1.0137176513671875,-0.3453369140625
1775714562015616800,0.21961669921875,-0.5648651123046875,-1.0279388427734375,-0.405517578125
1775714562025632800,0.2296328125,-0.5513458251953125,-1.0355224609375,-0.4501190185546875
1775714562035648800,0.239648681640625,-0.4818267822265625,-0.9922332763671875,-0.49444580078125
1775714562045665800,0.249665771484375,-0.3483734130859375,-0.8730316162109375,-0.46337890625
1775714562055681800,0.259681884765625,-0.2330474853515625,-0.777801513671875,-0.350433349609375
1775714562065697800,0.26969775390625,-0.1859130859375,-0.8402252197265625,-0.235382080078125
1775714562075714800,0.27971484375,-0.1991119384765625,-0.9294586181640625,-0.19000244140625
1775714562085730800,0.289730712890625,-0.2643585205078125,-0.974456787109375,-0.217529296875
1775714562095746800,0.299746826171875,-0.3018951416015625,-0.9783935546875,-0.2529754638671875
1775714562105763600,0.309763671875,-0.25244140625,-0.9221649169921875,-0.285552978515625
1775714562115779800,0.31977978515625,-0.19427490234375,-0.8440399169921875,-0.3259124755859375
1775714562125795800,0.3297958984375,-0.07550048828125,-0.8568878173828125,-0.274688720703125
1775714562135812900,0.339812744140625,0.000732421875,-0.8847198486328125,-0.159881591796875
1775714562145828600,0.34982861328125,-0.0316009521484375,-0.923797607421875,-0.0562896728515625
1775714562155844600,0.3598447265625,-0.0688934326171875,-0.972198486328125,-0.04278564453125
1775714562165860900,0.36986083984375,-0.062713623046875,-0.9633026123046875,-0.10150146484375
1775714562175878000,0.3798779296875,-0.0330047607421875,-0.9488067626953125,-0.1282501220703125
1775714562185894000,0.389893798828125,-0.0302734375,-0.9951629638671875,-0.09930419921875
1775714562195909600,0.39990966796875,-0.097625732421875,-1.0474700927734375,-0.0742034912109375
1775714562205927000,0.409927001953125,-0.1186981201171875,-1.0728607177734375,0.02337646484375
1775714562215943000,0.41994287109375,-0.205596923828125,-1.06964111328125,0.10614013671875
1775714562225959000,0.429958984375,-0.2573394775390625,-1.060089111328125,0.0932769775390625
1775714562235975700,0.4399755859375,-0.267364501953125,-1.0432891845703125,-0.0000457763671875
1775714562245991700,0.44999169921875,-0.3008575439453125,-1.033447265625,-0.073455810546875
1775714562256007700,0.460007568359375,-0.275726318359375,-1.0663604736328125,-0.095062255859375
1775714562266024000,0.47002392578125,-0.172607421875,-1.1012115478515625,-0.1026458740234375
1775714562276040700,0.480040771484375,-0.12457275390625,-1.0869903564453125,-0.1090850830078125
1775714562286056700,0.490056640625,-0.1090545654296875,-1.0778045654296875,-0.145294189453125
1775714562296072700,0.50007275390625,-0.1036224365234375,-1.080810546875,-0.1903839111328125
1775714562306090000,0.510090087890625,-0.1111602783203125,-1.0756683349609375,-0.2181396484375
1775714562316105700,0.520105712890625,-0.09478759765625,-1.0875091552734375,-0.1882171630859375
1775714562326121700,0.530121826171875,-0.13092041015625,-1.0979461669921875,-0.14697265625
1775714562336138800,0.540138671875,-0.142913818359375,-1.11102294921875,-0.101898193359375
1775714562346154800,0.55015478515625,-0.1530609130859375,-1.1152801513671875,-0.0611114501953125
1775714562356171000,0.5601708984375,-0.1732177734375,-1.0482940673828125,-0.0341644287109375
1775714562366186800,0.570186767578125,-0.2014007568359375,-0.9671173095703125,0.043365478515625
1775714562376203800,0.580203857421875,-0.24176025390625,-0.9419403076171875,0.1668243408203125
1775714562386219800,0.5902197265625,-0.266387939453125,-0.945648193359375,0.3110198974609375
1775714562396235800,0.60023583984375,-0.233673095703125,-0.97149658203125,0.4369049072265625
1775714562406252800,0.610252685546875,-0.1863555908203125,-0.97607421875,0.50396728515625
1775714562416268800,0.620268798828125,-0.1567840576171875,-0.9428558349609375,0.52734375
1775714562426284800,0.630284912109375,-0.1361541748046875,-0.8980712890625,0.53167724609375
1775714562436301800,0.6403017578125,-0.142791748046875,-0.849151611328125,0.49359130859375
1775714562446317600,0.650317626953125,-0.1115875244140625,-0.8164825439453125,0.4515533447265625
1775714562456333800,0.660333740234375,-0.0754547119140625,-0.7953338623046875,0.4187164306640625
1775714562466349800,0.670349853515625,-0.070526123046875,-0.762115478515625,0.386993408203125
1775714562476366800,0.680366943359375,-0.0998992919921875,-0.7414093017578125,0.402252197265625
1775714562486382800,0.6903828125,-0.0846405029296875,-0.7249603271484375,0.411285400390625
1775714562496398600,0.700398681640625,-0.0598602294921875,-0.724945068359375,0.4050140380859375
1775714562506415900,0.710415771484375,-0.0339813232421875,-0.738372802734375,0.4208831787109375
1775714562516432000,0.720431884765625,0.013763427734375,-0.7268829345703125,0.4146270751953125
1775714562526447900,0.73044775390625,0.0445556640625,-0.7106170654296875,0.35858154296875
1775714562536464600,0.740464599609375,0.0995941162109375,-0.695556640625,0.2837982177734375
1775714562546481000,0.75048095703125,0.1474456787109375,-0.683258056640625,0.2158660888671875
1775714562556497000,0.760496826171875,0.1795196533203125,-0.66729736328125,0.178802490234375
1775714562566513000,0.770512939453125,0.2263031005859375,-0.64276123046875,0.1922149658203125
1775714562576529700,0.78052978515625,0.227508544921875,-0.610076904296875,0.2173614501953125
1775714562586545700,0.790545654296875,0.2225189208984375,-0.572509765625,0.2216033935546875
1775714562596561700,0.800561767578125,0.2275238037109375,-0.5703125,0.21881103515625
1775714562606579000,0.810578857421875,0.197967529296875,-0.5681915283203125,0.214691162109375
1775714562616594700,0.8205947265625,0.2049560546875,-0.5573577880859375,0.21746826171875
1775714562626610700,0.830610595703125,0.2327880859375,-0.583587646484375,0.2397613525390625
1775714562636627700,0.840627685546875,0.251953125,-0.624420166015625,0.2630767822265625
1775714562646644000,0.85064404296875,0.30535888671875,-0.64849853515625,0.233001708984375
1775714562656660000,0.860659912109375,0.3355560302734375,-0.6839599609375,0.17645263671875
1775714562666675700,0.87067578125,0.3462371826171875,-0.73388671875,0.1759490966796875
1775714562676692700,0.880692626953125,0.3114776611328125,-0.788116455078125,0.2546234130859375
1775714562686708700,0.890708740234375,0.2480010986328125,-0.842071533203125,0.363861083984375
1775714562696725000,0.90072509765625,0.2048797607421875,-0.89251708984375,0.42437744140625
1775714562706741800,0.91074169921875,0.16131591796875,-0.9279327392578125,0.4326934814453125
1775714562716757800,0.9207578125,0.1117095947265625,-0.97882080078125,0.4505157470703125
1775714562726773800,0.930773681640625,0.0580902099609375,-1.0243682861328125,0.44793701171875
1775714562736790800,0.940790771484375,0.041900634765625,-1.069000244140625,0.4545440673828125
1775714562746806800,0.950806884765625,0.0524749755859375,-1.117218017578125,0.4803619384765625
1775714562756822800,0.96082275390625,0.1037445068359375,-1.157501220703125,0.4908599853515625
1775714562766838800,0.9708388671875,0.1595916748046875,-1.2019805908203125,0.4973297119140625
1775714562776855800,0.980855712890625,0.1888275146484375,-1.21490478515625,0.5021514892578125
1775714562786871600,0.99087158203125,0.2252655029296875,-1.1927642822265625,0.4958038330078125
1775714562796887800,1.0008876953125,0.2177581787109375,-1.1413421630859375,0.4819183349609375
1775714562806904800,1.01090478515625,0.1670379638671875,-1.0998992919921875,0.4955291748046875
1775714562816920800,1.0209208984375,0.097320556640625,-1.0770111083984375,0.5133819580078125
1775714562826936800,1.030936767578125,0.014923095703125,-1.0271148681640625,0.5050506591796875
1775714562836953900,1.040953857421875,-0.06494140625,-0.9774169921875,0.4832916259765625
1775714562846969900,1.050969970703125,-0.1404571533203125,-0.948944091796875,0.4856414794921875
1775714562856985900,1.06098583984375,-0.193817138671875,-0.9266815185546875,0.48565673828125
1775714562867001900,1.071001953125,-0.2157745361328125,-0.9034881591796875,0.44677734375
1775714562877018600,1.0810185546875,-0.2296905517578125,-0.8795013427734375,0.3663482666015625
1775714562887035000,1.091034912109375,-0.23822021484375,-0.8645172119140625,0.294769287109375
1775714562897051000,1.10105078125,-0.2581939697265625,-0.8701019287109375,0.2699432373046875
1775714562907067600,1.111067626953125,-0.2758941650390625,-0.87432861328125,0.2680816650390625
1775714562917083600,1.121083740234375,-0.273651123046875,-0.8867034912109375,0.27642822265625
1775714562927100000,1.131099853515625,-0.2566680908203125,-0.904632568359375,0.275848388671875
1775714562937117200,1.1411171875,-0.217071533203125,-0.9158935546875,0.2607879638671875
1775714562947133200,1.15113330078125,-0.1704254150390625,-0.93890380859375,0.261016845703125
1775714562957149000,1.16114892578125,-0.1317901611328125,-0.9547882080078125,0.2729644775390625
1775714562967165000,1.1711650390625,-0.1081085205078125,-0.9649200439453125,0.283447265625
1775714562977182000,1.181181884765625,-0.076141357421875,-0.981048583984375,0.2952423095703125
1775714562987198200,1.1911982421875,-0.035430908203125,-0.9714508056640625,0.2896575927734375
1775714562997214000,1.2012138671875,-0.0300140380859375,-0.94976806640625,0.2944183349609375
1775714563007231000,1.21123095703125,-0.041290283203125,-0.939300537109375,0.3106689453125
1775714563017247000,1.2212470703125,-0.062408447265625,-0.94439697265625,0.3155059814453125
1775714563027263000,1.231262939453125,-0.0720672607421875,-0.94732666015625,0.30999755859375
1775714563037280000,1.241280029296875,-0.0554656982421875,-0.945648193359375,0.3149566650390625
1775714563047296000,1.2512958984375,-0.018157958984375,-0.944122314453125,0.33526611328125
1775714563057312000,1.26131201171875,0.0067291259765625,-0.922119140625,0.35174560546875
1775714563067328000,1.271327880859375,0.04150390625,-0.916107177734375,0.373748779296875
1775714563077345000,1.281344970703125,0.0616302490234375,-0.92431640625,0.38818359375
1775714563087361000,1.291361083984375,0.0599517822265625,-0.927001953125,0.3904876708984375
1775714563097377000,1.301376953125,0.0428924560546875,-0.9512481689453125,0.40264892578125
1775714563107394000,1.31139404296875,0.0400543212890625,-0.9732666015625,0.4010009765625
1775714563117410000,1.32141015625,0.0433349609375,-0.9649810791015625,0.380645751953125
1775714563127425800,1.33142578125,0.045806884765625,-0.955322265625,0.3674163818359375
1775714563137443000,1.341443115234375,0.0618133544921875,-0.9580841064453125,0.3554229736328125
1775714563147459000,1.351458984375,0.057037353515625,-0.943023681640625,0.340301513671875
1775714563157475000,1.36147509765625,0.0326995849609375,-0.936798095703125,0.3224945068359375
1775714563167491000,1.371490966796875,0.01568603515625,-0.94573974609375,0.282135009765625
1775714563177508000,1.381508056640625,0.014495849609375,-0.939849853515625,0.2459259033203125
1775714563187524000,1.391524169921875,0.0208282470703125,-0.944091796875,0.2336578369140625
1775714563197540000,1.4015400390625,0.04693603515625,-0.9582672119140625,0.244476318359375
1775714563207556900,1.411556884765625,0.0591278076171875,-0.9593963623046875,0.2572784423828125
1775714563217572900,1.42157275390625,0.0641021728515625,-0.9610443115234375,0.2720794677734375
1775714563227589000,1.431589111328125,0.052886962890625,-0.967193603515625,0.289154052734375
1775714563237605000,1.441605224609375,0.0398101806640625,-0.963623046875,0.293182373046875
1775714563247622000,1.451621826171875,0.0337066650390625,-0.9502105712890625,0.29400634765625
1775714563257638000,1.461637939453125,0.024505615234375,-0.9551239013671875,0.302764892578125
1775714563267654000,1.47165380859375,0.0184173583984375,-0.942779541015625,0.2716522216796875
1775714563277671200,1.481671142578125,0.010223388671875,-0.9271392822265625,0.2246856689453125
1775714563287687200,1.491687255859375,0.010711669921875,-0.9266357421875,0.2106781005859375
1775714563297703000,1.501702880859375,0.0152740478515625,-0.923980712890625,0.2166900634765625
1775714563307720000,1.511719970703125,0.0369415283203125,-0.924835205078125,0.2322998046875
1775714563317736000,1.52173583984375,0.057220458984375,-0.9300079345703125,0.250457763671875
1775714563327752200,1.531752197265625,0.06781005859375,-0.93096923828125,0.263336181640625
1775714563337768200,1.541768310546875,0.0828094482421875,-0.942413330078125,0.2775726318359375
1775714563347785000,1.551784912109375,0.1002044677734375,-0.9488677978515625,0.2852783203125
1775714563357801000,1.561801025390625,0.0984954833984375,-0.942169189453125,0.284332275390625
1775714563367817000,1.57181689453125,0.0992889404296875,-0.946868896484375,0.302154541015625
1775714563377834000,1.581833984375,0.087066650390625,-0.9563751220703125,0.3064727783203125
1775714563387850000,1.59185009765625,0.078369140625,-0.9529266357421875,0.280059814453125
1775714563397866000,1.601865966796875,0.0646514892578125,-0.9633941650390625,0.2537994384765625
1775714563407883000,1.611883056640625,0.0540924072265625,-0.976715087890625,0.235595703125
1775714563417899000,1.62189892578125,0.0485076904296875,-0.97247314453125,0.224639892578125
1775714563427915000,1.6319150390625,0.0670928955078125,-0.9638824462890625,0.2253875732421875
1775714563437931000,1.641930908203125,0.073944091796875,-0.96826171875,0.2354583740234375
1775714563447948000,1.651947998046875,0.0600128173828125,-0.9726715087890625,0.24493408203125
1775714563457964000,1.661964111328125,0.04473876953125,-0.981201171875,0.2574310302734375
1775714563467980000,1.67197998046875,0.0216064453125,-0.9769134521484375,0.271270751953125
1775714563477997000,1.6819970703125,0.0132904052734375,-0.978485107421875,0.2979736328125
1775714563488013000,1.692012939453125,0.0221099853515625,-0.975494384765625,0.326416015625
1775714563498029000,1.702029052734375,0.017303466796875,-0.9600830078125,0.3522491455078125
1775714563508045000,1.712045166015625,0.0132293701171875,-0.9557037353515625,0.3719635009765625
1775714563518062000,1.72206201171875,-0.008575439453125,-0.949798583984375,0.37371826171875
1775714563528078000,1.732078125,-0.0272369384765625,-0.9410247802734375,0.3663787841796875
1775714563538094000,1.742093994140625,-0.038909912109375,-0.928863525390625,0.3499298095703125
1775714563548110800,1.75211083984375,-0.060577392578125,-0.92303466796875,0.338623046875
1775714563558126800,1.762126953125,-0.0732574462890625,-0.92999267578125,0.3479461669921875
1775714563568143000,1.77214306640625,-0.0747833251953125,-0.93389892578125,0.3530426025390625
1775714563578160000,1.78216015625,-0.0781707763671875,-0.936309814453125,0.354644775390625
1775714563588176100,1.792176025390625,-0.077239990234375,-0.9440460205078125,0.3534698486328125
1775714563598191900,1.80219189453125,-0.0718231201171875,-0.9522705078125,0.345306396484375
1775714563608208000,1.812207763671875,-0.0540618896484375,-0.954071044921875,0.339996337890625
1775714563618225200,1.82222509765625,-0.0324554443359375,-0.9461822509765625,0.339630126953125
1775714563628241200,1.8322412109375,-0.008331298828125,-0.9429931640625,0.336669921875
1775714563638257200,1.842257080078125,0.02398681640625,-0.9476165771484375,0.3343658447265625
1775714563648274000,1.85227392578125,0.04022216796875,-0.9556884765625,0.330078125
1775714563658290000,1.8622900390625,0.0390777587890625,-0.9515380859375,0.320556640625
1775714563668306200,1.87230615234375,0.0287628173828125,-0.9451141357421875,0.3214569091796875
1775714563678323000,1.882322998046875,0.00531005859375,-0.9477386474609375,0.3243255615234375
1775714563688339000,1.8923388671875,-0.01416015625,-0.9476470947265625,0.322479248046875
1775714563698355000,1.90235498046875,-0.0245819091796875,-0.9430389404296875,0.313507080078125
1775714563708371000,1.912370849609375,-0.029327392578125,-0.9383544921875,0.2977142333984375
1775714563718388000,1.922387939453125,-0.0374908447265625,-0.9368133544921875,0.283416748046875
1775714563728404000,1.932404052734375,-0.04241943359375,-0.9409027099609375,0.2710113525390625
1775714563738420000,1.942419921875,-0.0437469482421875,-0.943603515625,0.263336181640625
1775714563748437000,1.95243701171875,-0.043182373046875,-0.947357177734375,0.2627105712890625
1775714563758453200,1.962453369140625,-0.02899169921875,-0.952423095703125,0.27154541015625
1775714563768469000,1.972468994140625,-0.02130126953125,-0.953521728515625,0.283538818359375
1775714563778485000,1.982485107421875,-0.0258636474609375,-0.956634521484375,0.3001556396484375
1775714563788502000,1.992501953125,-0.0295867919921875,-0.9559478759765625,0.3109588623046875
1775714563798518000,2.00251806640625,-0.0381622314453125,-0.958648681640625,0.3187255859375
1775714563808534300,2.0125341796875,-0.0393218994140625,-0.95758056640625,0.3190460205078125
1775714563818551000,2.022551025390625,-0.036590576171875,-0.94775390625,0.3157196044921875
1775714563828567000,2.032567138671875,-0.040679931640625,-0.9438323974609375,0.3173675537109375
1775714563838583000,2.0425830078125,-0.0372772216796875,-0.9420166015625,0.3221893310546875
1775714563848599800,2.052599853515625,-0.032989501953125,-0.94134521484375,0.3330535888671875
1775714563858616000,2.062615966796875,-0.025909423828125,-0.9363555908203125,0.3467559814453125
1775714563868632000,2.072632080078125,-0.0164794921875,-0.9311370849609375,0.3500823974609375
1775714563878648000,2.08264794921875,-0.007965087890625,-0.928070068359375,0.3550262451171875
1775714563888665000,2.0926650390625,0.0067138671875,-0.92279052734375,0.373931884765625
1775714563898680800,2.102680908203125,0.0171661376953125,-0.922576904296875,0.3998260498046875
1775714563908697000,2.112697021484375,0.033233642578125,-0.9107513427734375,0.4223480224609375
1775714563918714000,2.122714111328125,0.0506591796875,-0.896240234375,0.441741943359375
1775714563928729600,2.1327294921875,0.0509796142578125,-0.8955230712890625,0.4650421142578125
1775714563938745600,2.14274560546875,0.050323486328125,-0.9077301025390625,0.49664306640625
1775714563948761300,2.15276123046875,0.0552825927734375,-0.9080810546875,0.5249176025390625
1775714563958778600,2.162778564453125,0.056304931640625,-0.9012298583984375,0.5440521240234375
1775714563968794600,2.172794677734375,0.0560302734375,-0.9105682373046875,0.54345703125
1775714563978810600,2.182810546875,0.0466766357421875,-0.93109130859375,0.5199737548828125
1775714563988827400,2.192827392578125,0.039276123046875,-0.9480133056640625,0.479461669921875
1775714563998843600,2.20284375,0.0402679443359375,-0.9520111083984375,0.4255828857421875
1775714564008859600,2.212859619140625,0.0247650146484375,-0.948272705078125,0.3650970458984375
1775714564018875600,2.222875732421875,0.0059814453125,-0.94805908203125,0.28399658203125
1775714564028892400,2.232892333984375,-0.02362060546875,-0.9629058837890625,0.222564697265625
1775714564038908400,2.242908447265625,-0.0586090087890625,-0.9724273681640625,0.1927337646484375
1775714564048924700,2.252924560546875,-0.070648193359375,-0.96331787109375,0.1537017822265625
1775714564058941700,2.262941650390625,-0.0732269287109375,-0.9551544189453125,0.1287994384765625
1775714564068957400,2.27295751953125,-0.094085693359375,-0.94451904296875,0.1201019287109375
1775714564078973400,2.282973388671875,-0.107269287109375,-0.9164886474609375,0.111785888671875
1775714564088990700,2.29299072265625,-0.12298583984375,-0.889801025390625,0.12518310546875
1775714564099006700,2.3030068359375,-0.1289215087890625,-0.8682861328125,0.1589202880859375
1775714564109022700,2.313022705078125,-0.13275146484375,-0.8462677001953125,0.194854736328125
1775714564119038500,2.32303857421875,-0.136383056640625,-0.8284912109375,0.2193603515625
1775714564129055500,2.333055419921875,-0.1299896240234375,-0.80010986328125,0.209625244140625
1775714564139071500,2.343071533203125,-0.1049041748046875,-0.7582550048828125,0.1570587158203125
1775714564149087700,2.353087646484375,-0.0671844482421875,-0.7268829345703125,0.1204071044921875
1775714564159104500,2.3631044921875,-0.02508544921875,-0.698089599609375,0.11962890625
1775714564169120500,2.37312060546875,0.0414276123046875,-0.6488189697265625,0.133392333984375
1775714564179136500,2.383136474609375,0.08489990234375,-0.620697021484375,0.1838531494140625
1775714564189152500,2.393152587890625,0.1258392333984375,-0.6076812744140625,0.2713165283203125
1775714564199169500,2.40316943359375,0.1466522216796875,-0.5799713134765625,0.346771240234375
1775714564209185500,2.413185546875,0.137176513671875,-0.5561676025390625,0.378448486328125
1775714564219201500,2.423201416015625,0.1190338134765625,-0.548919677734375,0.367431640625
1775714564229218600,2.433218505859375,0.0918426513671875,-0.547821044921875,0.3260498046875
1775714564239234600,2.443234619140625,0.0781402587890625,-0.5369873046875,0.301788330078125
1775714564249250600,2.45325048828125,0.0616912841796875,-0.54815673828125,0.314178466796875
1775714564259266600,2.4632666015625,0.0580596923828125,-0.563873291015625,0.345977783203125
1775714564269283600,2.47328369140625,0.0667266845703125,-0.5857391357421875,0.3717498779296875
1775714564279299600,2.483299560546875,0.08197021484375,-0.6241455078125,0.3809967041015625
1775714564289315600,2.493315673828125,0.0965728759765625,-0.6583709716796875,0.3683013916015625
1775714564299332600,2.50333251953125,0.121337890625,-0.6784515380859375,0.3265533447265625
1775714564309348600,2.5133486328125,0.15057373046875,-0.6851959228515625,0.286407470703125
1775714564319364600,2.523364501953125,0.138458251953125,-0.6857147216796875,0.280548095703125
1775714564329380600,2.533380615234375,0.1334075927734375,-0.67694091796875,0.2906646728515625
1775714564339397600,2.543397705078125,0.14166259765625,-0.6771240234375,0.3040771484375
1775714564349413600,2.55341357421875,0.143096923828125,-0.6798553466796875,0.3159942626953125
1775714564359429600,2.5634296875,0.149627685546875,-0.6712799072265625,0.3351287841796875
1775714564369446400,2.5734462890625,0.1468505859375,-0.6702423095703125,0.3763885498046875
1775714564379462400,2.58346240234375,0.12774658203125,-0.68011474609375,0.4190216064453125
1775714564389478700,2.593478759765625,0.1417083740234375,-0.6746673583984375,0.4379730224609375
1775714564399494700,2.60349462890625,0.1251678466796875,-0.6628265380859375,0.4470672607421875
1775714564409511700,2.61351171875,0.0882110595703125,-0.6480560302734375,0.43310546875
1775714564419527400,2.62352734375,0.0636138916015625,-0.632171630859375,0.4074859619140625
1775714564429543400,2.63354345703125,0.026214599609375,-0.62554931640625,0.3809356689453125
1775714564439560700,2.643560791015625,0.003692626953125,-0.6538848876953125,0.3783111572265625
1775714564449576700,2.65357666015625,-0.0012664794921875,-0.689697265625,0.3826751708984375
1775714564459592700,2.6635927734375,0.009857177734375,-0.72906494140625,0.3671112060546875
1775714564469608400,2.6736083984375,0.0720062255859375,-0.8112030029296875,0.388153076171875
1775714564479625500,2.68362548828125,0.128448486328125,-0.863037109375,0.418212890625
1775714564489641700,2.693641845703125,0.16998291015625,-0.8692169189453125,0.4420623779296875
1775714564499657700,2.70365771484375,0.18194580078125,-0.8862762451171875,0.43951416015625
1775714564509674500,2.713674560546875,0.1693267822265625,-0.903839111328125,0.4053802490234375
1775714564519690500,2.7236904296875,0.1306304931640625,-0.9145660400390625,0.3614044189453125
1775714564529706500,2.73370654296875,0.0974884033203125,-0.929931640625,0.307769775390625
1775714564539722800,2.74372265625,0.1060791015625,-0.933624267578125,0.2394256591796875
1775714564549739500,2.753739501953125,0.1796112060546875,-0.9333648681640625,0.2181243896484375
1775714564559755500,2.763755615234375,0.25238037109375,-0.9307403564453125,0.274322509765625
1775714564569771500,2.773771484375,0.2993621826171875,-0.92822265625,0.365386962890625
1775714564579788800,2.783788818359375,0.326812744140625,-0.962432861328125,0.4390869140625
1775714564589804500,2.793804443359375,0.2991485595703125,-1.0145416259765625,0.467681884765625
1775714564599820500,2.803820556640625,0.2723236083984375,-1.011993408203125,0.4277496337890625
1775714564609836500,2.81383642578125,0.2359161376953125,-0.991424560546875,0.3538360595703125
1775714564619853600,2.823853515625,0.21502685546875,-0.975738525390625,0.31658935546875
1775714564629869600,2.83386962890625,0.190460205078125,-1.0131988525390625,0.32904052734375
1775714564639885600,2.843885498046875,0.210662841796875,-1.0495452880859375,0.36737060546875
1775714564649902600,2.853902587890625,0.2090606689453125,-1.0301513671875,0.3849945068359375
1775714564659918600,2.863918701171875,0.1773529052734375,-1.010284423828125,0.37933349609375
1775714564669934600,2.8739345703125,0.1044921875,-0.9886016845703125,0.3541107177734375
1775714564679950600,2.88395068359375,0.0157470703125,-0.9779815673828125,0.33612060546875
1775714564689967600,2.893967529296875,-0.057281494140625,-0.99786376953125,0.334197998046875
1775714564699983600,2.903983642578125,-0.0879058837890625,-1.0370941162109375,0.3405914306640625
1775714564709999600,2.91399951171875,-0.08660888671875,-1.0922088623046875,0.32476806640625
1775714564720016400,2.924016357421875,-0.066131591796875,-1.1177215576171875,0.25897216796875
1775714564730032600,2.93403271484375,-0.0733642578125,-1.0994720458984375,0.19207763671875
1775714564740048600,2.944048583984375,-0.0927886962890625,-1.0717010498046875,0.1294403076171875
1775714564750064600,2.954064697265625,-0.1314697265625,-1.0729827880859375,0.09344482421875
1775714564760081400,2.964081298828125,-0.2039794921875,-1.11285400390625,0.089813232421875
1775714564770097400,2.974097412109375,-0.2424774169921875,-1.1770477294921875,0.13714599609375
1775714564780113400,2.984113525390625,-0.258331298828125,-1.270904541015625,0.186614990234375
1775714564790129700,2.994129638671875,-0.201568603515625,-1.307037353515625,0.2294769287109375
1775714564800146700,3.004146728515625,-0.1581268310546875,-1.3112640380859375,0.2852783203125
1775714564810162400,3.014162353515625,-0.1505584716796875,-1.340057373046875,0.3359527587890625
1775714564820178400,3.024178466796875,-0.1563568115234375,-1.37725830078125,0.32025146484375
1775714564830195700,3.03419580078125,-0.1234893798828125,-1.380889892578125,0.240814208984375
1775714564840211700,3.044211669921875,-0.0488433837890625,-1.3724517822265625,0.183349609375
1775714564850227700,3.054227783203125,-0.0028839111328125,-1.3670501708984375,0.1845245361328125
1775714564860244500,3.064244384765625,0.03497314453125,-1.3545379638671875,0.231781005859375
1775714564870260500,3.074260498046875,0.0768585205078125,-1.3899383544921875,0.286407470703125
1775714564880276700,3.08427685546875,0.104583740234375,-1.4477386474609375,0.35113525390625
1775714564890292700,3.094292724609375,0.0416259765625,-1.4415435791015625,0.387115478515625
1775714564900309500,3.1043095703125,-0.011749267578125,-1.4220428466796875,0.378326416015625
1775714564910325500,3.114325439453125,-0.0290985107421875,-1.411590576171875,0.331085205078125
1775714564920341500,3.124341552734375,-0.035064697265625,-1.40765380859375,0.3245697021484375
1775714564930357200,3.134357177734375,-0.03326416015625,-1.42327880859375,0.3576202392578125
1775714564940374000,3.1443740234375,-0.06231689453125,-1.4334564208984375,0.382720947265625
1775714564950390000,3.15439013671875,-0.1214752197265625,-1.4529266357421875,0.3993377685546875
1775714564960406300,3.16440625,-0.193450927734375,-1.496917724609375,0.3854522705078125
1775714564970423300,3.17442333984375,-0.223541259765625,-1.5179443359375,0.3212127685546875
1775714564980439300,3.184439208984375,-0.213165283203125,-1.511322021484375,0.2717742919921875
1775714564990455000,3.194455078125,-0.2211456298828125,-1.4886932373046875,0.25665283203125
1775714565000471000,3.204470947265625,-0.2254180908203125,-1.5139007568359375,0.2597503662109375
1775714565010488300,3.21448828125,-0.197784423828125,-1.55511474609375,0.262420654296875
1775714565020504300,3.22450439453125,-0.161956787109375,-1.52911376953125,0.289581298828125
1775714565030520300,3.234520263671875,-0.15008544921875,-1.49481201171875,0.3472442626953125
1775714565040537000,3.244537109375,-0.167694091796875,-1.4862060546875,0.4326629638671875
1775714565050553000,3.254552978515625,-0.2158050537109375,-1.4688720703125,0.506805419921875
1775714565060569300,3.2645693359375,-0.2343292236328125,-1.46160888671875,0.5221405029296875
1775714565070585300,3.27458544921875,-0.2098541259765625,-1.46160888671875,0.488006591796875
1775714565080602000,3.28460205078125,-0.179351806640625,-1.45062255859375,0.4288787841796875
1775714565090618000,3.2946181640625,-0.1645050048828125,-1.411163330078125,0.3867034912109375
1775714565100634000,3.304634033203125,-0.1311492919921875,-1.3802032470703125,0.3784637451171875
1775714565110650400,3.314650390625,-0.1071624755859375,-1.3403778076171875,0.3976593017578125
1775714565120667100,3.324667236328125,-0.09326171875,-1.3278961181640625,0.4429168701171875
1775714565130683100,3.33468310546875,-0.0487518310546875,-1.3493499755859375,0.459381103515625
1775714565140699100,3.34469921875,0.0168914794921875,-1.34820556640625,0.451629638671875
1775714565150716400,3.35471630859375,0.0622100830078125,-1.3249969482421875,0.4492950439453125
1775714565160732200,3.364732177734375,0.0964813232421875,-1.281829833984375,0.444610595703125
1775714565170748200,3.374748046875,0.0916290283203125,-1.19317626953125,0.431243896484375
1775714565180764200,3.38476416015625,0.021636962890625,-1.1396636962890625,0.448211669921875
1775714565190781200,3.39478125,-0.0968170166015625,-1.1412353515625,0.451812744140625
1775714565200797200,3.404797119140625,-0.2221832275390625,-1.1725006103515625,0.3805389404296875
1775714565210813200,3.414813232421875,-0.2846221923828125,-1.1953582763671875,0.225860595703125
1775714565220829200,3.4248291015625,-0.263580322265625,-1.1815338134765625,0.0809783935546875
1775714565230846200,3.43484619140625,-0.187713623046875,-1.1376190185546875,0.0144195556640625
1775714565240862200,3.4448623046875,-0.11273193359375,-1.0564422607421875,0.029083251953125
1775714565250878200,3.454878173828125,-0.0817413330078125,-1.02642822265625,0.1181488037109375
1775714565260895200,3.464895263671875,-0.1047821044921875,-1.095184326171875,0.2113800048828125
1775714565270911200,3.4749111328125,-0.1203460693359375,-1.155914306640625,0.2323455810546875
1775714565280927200,3.48492724609375,-0.1511077880859375,-1.150177001953125,0.2080230712890625
1775714565290943200,3.494943115234375,-0.1674041748046875,-1.1037750244140625,0.1626739501953125
1775714565300960300,3.504960205078125,-0.1562347412109375,-1.03466796875,0.11602783203125
1775714565310976300,3.514976318359375,-0.1319427490234375,-0.9855499267578125,0.107086181640625
1775714565320992300,3.5249921875,-0.09619140625,-0.9407806396484375,0.1210784912109375
1775714565331009000,3.535009033203125,-0.052093505859375,-0.8725433349609375,0.11566162109375
1775714565341025000,3.54502490234375,-0.0103912353515625,-0.8099517822265625,0.1338653564453125
1775714565351041000,3.555041015625,0.0003509521484375,-0.7684326171875,0.1932373046875
1775714565361057300,3.565057373046875,-0.0154571533203125,-0.728485107421875,0.280792236328125
1775714565371074300,3.57507421875,-0.034942626953125,-0.7191619873046875,0.3557891845703125
1775714565381090000,3.585090087890625,-0.03729248046875,-0.714141845703125,0.4005126953125
1775714565391106000,3.59510595703125,-0.042144775390625,-0.7134857177734375,0.3917999267578125
1775714565401122000,3.6051220703125,-0.0348358154296875,-0.701629638671875,0.3360748291015625
1775714565411139300,3.615139404296875,-0.0289459228515625,-0.6990814208984375,0.265869140625
1775714565421155300,3.6251552734375,0.0042724609375,-0.6728363037109375,0.181976318359375
1775714565431171000,3.635171142578125,0.0203704833984375,-0.6336517333984375,0.1201019287109375
1775714565441188000,3.64518798828125,0.02484130859375,-0.59686279296875,0.1146392822265625
1775714565451204400,3.655204345703125,0.0281219482421875,-0.5554046630859375,0.1587982177734375
1775714565461220400,3.665220458984375,0.0161895751953125,-0.549774169921875,0.2535247802734375
1775714565471236400,3.675236328125,0.0229339599609375,-0.5717926025390625,0.362152099609375
1775714565481253000,3.685253173828125,0.026123046875,-0.595184326171875,0.4482269287109375
1775714565491269000,3.69526904296875,0.0128326416015625,-0.614105224609375,0.4856719970703125
1775714565501285000,3.70528515625,0.030914306640625,-0.6063232421875,0.4743499755859375
1775714565511301400,3.71530126953125,0.0351715087890625,-0.59417724609375,0.410491943359375
1775714565521318100,3.725318115234375,0.013763427734375,-0.5903778076171875,0.315826416015625
1775714565531334100,3.735334228515625,-0.0048675537109375,-0.582244873046875,0.226654052734375
1775714565541350100,3.74535009765625,-0.0230560302734375,-0.5759735107421875,0.165283203125
1775714565551366100,3.7553662109375,-0.0318603515625,-0.564544677734375,0.1461944580078125
1775714565561383200,3.765383056640625,-0.0486297607421875,-0.5491943359375,0.1612091064453125
1775714565571399200,3.775399169921875,-0.0400238037109375,-0.53985595703125,0.1883392333984375
1775714565581415200,3.785415283203125,-0.0336456298828125,-0.532745361328125,0.2433319091796875
1775714565591432200,3.79543212890625,-0.0607147216796875,-0.5788116455078125,0.3377685546875
1775714565601448200,3.8054482421875,-0.0933074951171875,-0.6147918701171875,0.4068603515625
1775714565611464200,3.815464111328125,-0.1395416259765625,-0.6681060791015625,0.4261627197265625
1775714565621480200,3.825480224609375,-0.136138916015625,-0.712646484375,0.3862762451171875
1775714565631497200,3.835497314453125,-0.0857696533203125,-0.7113494873046875,0.3060302734375
1775714565641513200,3.84551318359375,-0.027130126953125,-0.6813812255859375,0.238250732421875
1775714565651529200,3.855529296875,0.0177154541015625,-0.6246337890625,0.180633544921875
1775714565661545200,3.865545166015625,0.0317230224609375,-0.5518341064453125,0.1476287841796875
1775714565671562200,3.875562255859375,0.011932373046875,-0.485198974609375,0.180511474609375
1775714565681578200,3.885578125,-0.0406951904296875,-0.456298828125,0.26739501953125
1775714565691594200,3.89559423828125,-0.0993194580078125,-0.4404449462890625,0.3734283447265625
1775714565701610000,3.90560986328125,-0.20672607421875,-0.5020751953125,0.500640869140625
1775714565711627300,3.915627197265625,-0.311767578125,-0.6106719970703125,0.5505218505859375
1775714565721643300,3.925643310546875,-0.3709564208984375,-0.638519287109375,0.48699951171875
1775714565731659300,3.9356591796875,-0.3826904296875,-0.66473388671875,0.3918304443359375
1775714565741676000,3.945676025390625,-0.313323974609375,-0.680419921875,0.2848358154296875
1775714565751692300,3.9556923828125,-0.219268798828125,-0.67333984375,0.2009124755859375
1775714565761708300,3.965708251953125,-0.11737060546875,-0.69427490234375,0.1524505615234375
1775714565771724300,3.975724365234375,-0.01849365234375,-0.7382354736328125,0.1558837890625
1775714565781741000,3.985740966796875,0.0106353759765625,-0.8123016357421875,0.2483062744140625
1775714565791757000,3.995757080078125,-0.0205230712890625,-0.938934326171875,0.3927154541015625
1775714565801773300,4.005773193359375,-0.0800933837890625,-1.0390472412109375,0.500152587890625
1775714565811789300,4.015789306640625,-0.1420135498046875,-1.0973358154296875,0.5428466796875
1775714565821806000,4.02580615234375,-0.1895599365234375,-1.1220703125,0.5287628173828125
1775714565831822000,4.035822021484375,-0.2241973876953125,-1.1107025146484375,0.463653564453125
1775714565841838000,4.045838134765625,-0.25286865234375,-1.067626953125,0.364837646484375
1775714565851854000,4.05585400390625,-0.30072021484375,-1.03814697265625,0.2805633544921875
1775714565861871400,4.065871337890625,-0.3247833251953125,-1.0307464599609375,0.2333831787109375
1775714565871887000,4.07588720703125,-0.335601806640625,-1.0181732177734375,0.230194091796875
1775714565881903000,4.085903076171875,-0.3326873779296875,-1.0054168701171875,0.262115478515625
1775714565891920100,4.095920166015625,-0.311492919921875,-1.000213623046875,0.329864501953125
1775714565901936400,4.105936279296875,-0.2868499755859375,-1.0194091796875,0.4236907958984375
1775714565911952400,4.115952392578125,-0.2540283203125,-1.03790283203125,0.4811248779296875
1775714565921968000,4.125968017578125,-0.2042083740234375,-1.0475311279296875,0.4924163818359375
1775714565931985700,4.135985595703125,-0.141815185546875,-1.03887939453125,0.471954345703125
1775714565942001700,4.146001708984375,-0.0796356201171875,-1.0153961181640625,0.4465789794921875
1775714565952017700,4.156017578125,-0.0443267822265625,-0.9922332763671875,0.4123077392578125
1775714565962033700,4.16603369140625,-0.0360870361328125,-0.9577178955078125,0.3578338623046875
1775714565972050700,4.17605078125,-0.0333099365234375,-0.9470367431640625,0.3205718994140625
1775714565982066700,4.186066650390625,-0.04119873046875,-0.9417572021484375,0.3079071044921875
1775714565992082700,4.196082763671875,-0.0638580322265625,-0.924346923828125,0.3148651123046875
1775714566002098700,4.2060986328125,-0.1027984619140625,-0.9012451171875,0.337646484375
1775714566012115700,4.21611572265625,-0.1352996826171875,-0.8814697265625,0.369720458984375
1775714566022131700,4.226131591796875,-0.167327880859375,-0.8770904541015625,0.4061431884765625
1775714566032147700,4.236147705078125,-0.1764373779296875,-0.8842620849609375,0.4264068603515625
1775714566042163700,4.246163818359375,-0.1519317626953125,-0.8989410400390625,0.42535400390625
1775714566052180700,4.2561806640625,-0.0874176025390625,-0.912109375,0.4122772216796875
1775714566062196700,4.26619677734375,-0.037750244140625,-0.909149169921875,0.3812103271484375
1775714566072212700,4.276212646484375,-0.0057525634765625,-0.9173126220703125,0.3596649169921875
1775714566082228700,4.286228759765625,0.00970458984375,-0.9351654052734375,0.36859130859375
1775714566092245500,4.29624560546875,0.02459716796875,-0.9294891357421875,0.3852691650390625
1775714566102261500,4.306261474609375,0.0183868408203125,-0.915557861328125,0.4008026123046875
1775714566112277800,4.31627783203125,0.0011138916015625,-0.9022674560546875,0.408599853515625
1775714566122293800,4.326293701171875,-0.0129241943359375,-0.8764190673828125,0.4076385498046875
1775714566132310500,4.336310546875,-0.0319671630859375,-0.85992431640625,0.42034912109375
1775714566142326500,4.346326416015625,-0.056976318359375,-0.8585052490234375,0.440673828125
1775714566152342500,4.356342529296875,-0.0861358642578125,-0.8531646728515625,0.449981689453125
1775714566162359800,4.36635986328125,-0.097015380859375,-0.8555755615234375,0.4548187255859375
1775714566172375600,4.37637548828125,-0.10797119140625,-0.8706207275390625,0.4449615478515625
1775714566182391600,4.3863916015625,-0.109344482421875,-0.88348388671875,0.425537109375
1775714566192407600,4.396407470703125,-0.1029510498046875,-0.89593505859375,0.40582275390625
1775714566202424800,4.4064248046875,-0.0973358154296875,-0.9075927734375,0.3934326171875
1775714566212440800,4.41644091796875,-0.10260009765625,-0.922027587890625,0.3805694580078125
1775714566222456600,4.42645654296875,-0.112518310546875,-0.9217681884765625,0.3672637939453125
1775714566232472600,4.43647265625,-0.13421630859375,-0.9174346923828125,0.359832763671875
1775714566242489600,4.446489501953125,-0.151763916015625,-0.920562744140625,0.3580780029296875
1775714566252505600,4.456505615234375,-0.1594696044921875,-0.9174041748046875,0.35821533203125
1775714566262521900,4.46652197265625,-0.155609130859375,-0.915679931640625,0.3550872802734375
1775714566272537600,4.47653759765625,-0.14898681640625,-0.920440673828125,0.3509368896484375
1775714566282554600,4.4865546875,-0.1315155029296875,-0.932891845703125,0.353363037109375
1775714566292570600,4.496570556640625,-0.1094818115234375,-0.937255859375,0.3622589111328125
1775714566302586600,4.506586669921875,-0.0912628173828125,-0.9407958984375,0.3821868896484375
1775714566312603000,4.516602783203125,-0.075927734375,-0.94720458984375,0.40032958984375
1775714566322619600,4.52661962890625,-0.06781005859375,-0.952545166015625,0.401123046875
1775714566332635600,4.5366357421875,-0.0658111572265625,-0.96014404296875,0.3967437744140625
1775714566342651600,4.546651611328125,-0.0502166748046875,-0.947235107421875,0.38677978515625
1775714566352667600,4.556667724609375,-0.0409393310546875,-0.920867919921875,0.3819427490234375
1775714566362684700,4.5666845703125,-0.0557708740234375,-0.9127349853515625,0.389373779296875
1775714566372700700,4.57670068359375,-0.0622711181640625,-0.91790771484375,0.409698486328125
1775714566382716700,4.586716552734375,-0.065673828125,-0.9305877685546875,0.427032470703125
1775714566392732700,4.596732666015625,-0.0589447021484375,-0.9386444091796875,0.4335174560546875
1775714566402749400,4.60674951171875,-0.056243896484375,-0.9422607421875,0.4320526123046875
1775714566412765700,4.616765625,-0.0605316162109375,-0.9313812255859375,0.4253082275390625
1775714566422781700,4.62678173828125,-0.071380615234375,-0.9186553955078125,0.4280242919921875
1775714566432797700,4.636797607421875,-0.073211669921875,-0.91973876953125,0.4335479736328125
1775714566442814500,4.646814453125,-0.0698394775390625,-0.8965606689453125,0.434539794921875
1775714566452830500,4.65683056640625,-0.0609130859375,-0.8733978271484375,0.4511566162109375
1775714566462846700,4.6668466796875,-0.04461669921875,-0.8557891845703125,0.460357666015625
1775714566472862700,4.67686279296875,-0.0191650390625,-0.8336944580078125,0.4571533203125
1775714566482879700,4.686879638671875,0.0167999267578125,-0.8240509033203125,0.4634857177734375
1775714566492895500,4.6968955078125,0.0391082763671875,-0.82269287109375,0.4818115234375
1775714566502911500,4.706911376953125,0.0534515380859375,-0.8052520751953125,0.4882049560546875
1775714566512927700,4.716927734375,0.061309814453125,-0.7729949951171875,0.481048583984375
1775714566522944800,4.72694482421875,0.0455322265625,-0.7375946044921875,0.4747467041015625
1775714566532960800,4.736960693359375,0.00994873046875,-0.714874267578125,0.4756622314453125
1775714566542976500,4.7469765625,-0.016143798828125,-0.6961669921875,0.47998046875
1775714566552992500,4.756992431640625,-0.0300750732421875,-0.66204833984375,0.4696044921875
1775714566563009800,4.767009765625,-0.04229736328125,-0.6212921142578125,0.4485931396484375
1775714566573025800,4.77702587890625,-0.06365966796875,-0.581146240234375,0.4102935791015625
1775714566583041800,4.787041748046875,-0.104095458984375,-0.538543701171875,0.38458251953125
1775714566593057500,4.7970576171875,-0.1601715087890625,-0.519439697265625,0.367095947265625
1775714566603074600,4.807074462890625,-0.1813812255859375,-0.512176513671875,0.342437744140625
1775714566613090800,4.8170908203125,-0.18731689453125,-0.495208740234375,0.3107147216796875
1775714566623106800,4.82710693359375,-0.1937408447265625,-0.4984283447265625,0.2850494384765625
1775714566633122600,4.83712255859375,-0.1955718994140625,-0.50457763671875,0.274749755859375
1775714566643139600,4.8471396484375,-0.1906890869140625,-0.501617431640625,0.2559051513671875
1775714566653155600,4.857155517578125,-0.16375732421875,-0.48590087890625,0.2152557373046875
1775714566663171800,4.867171875,-0.1273956298828125,-0.4790802001953125,0.1864166259765625
1775714566673187800,4.877187744140625,-0.093109130859375,-0.4596710205078125,0.1719207763671875
1775714566683204600,4.88720458984375,-0.0649871826171875,-0.4343414306640625,0.1808624267578125
1775714566693220600,4.897220703125,-0.0518035888671875,-0.4219970703125,0.2210693359375
1775714566703236600,4.907236572265625,-0.0547943115234375,-0.4274749755859375,0.2720489501953125
1775714566713252600,4.917252685546875,-0.050018310546875,-0.46453857421875,0.326446533203125
1775714566723269600,4.92726953125,0.0184478759765625,-0.5010223388671875,0.3555450439453125
1775714566733285600,4.93728564453125,0.1278533935546875,-0.53033447265625,0.358734130859375
1775714566743301600,4.947301513671875,0.2292327880859375,-0.566741943359375,0.357666015625
1775714566753317600,4.957317626953125,0.278778076171875,-0.5929718017578125,0.3698883056640625
1775714566763334700,4.967334716796875,0.29644775390625,-0.6135101318359375,0.40362548828125
1775714566773350700,4.9773505859375,0.2911529541015625,-0.6565704345703125,0.457489013671875
1775714566783366700,4.98736669921875,0.281585693359375,-0.7090911865234375,0.48291015625
1775714566793382700,4.997382568359375,0.28521728515625,-0.753265380859375,0.4749298095703125
1775714566803399700,5.007399658203125,0.2894439697265625,-0.80096435546875,0.46630859375
1775714566813415700,5.017415771484375,0.3054656982421875,-0.8090057373046875,0.419189453125
1775714566823431700,5.027431640625,0.306549072265625,-0.780853271484375,0.372589111328125
1775714566833447700,5.03744775390625,0.304412841796875,-0.79119873046875,0.363311767578125
1775714566843463700,5.047463623046875,0.3042755126953125,-0.8086395263671875,0.3725128173828125
1775714566853480700,5.057480712890625,0.289215087890625,-0.8070068359375,0.3831024169921875
1775714566863496400,5.067496337890625,0.2635955810546875,-0.7763519287109375,0.3704071044921875
1775714566873512700,5.0775126953125,0.1968536376953125,-0.75933837890625,0.3649444580078125
1775714566883528700,5.08752880859375,0.13995361328125,-0.7895660400390625,0.3915252685546875
1775714566893545700,5.097545654296875,0.1414947509765625,-0.8365020751953125,0.4501495361328125
1775714566903561500,5.1075615234375,0.158966064453125,-0.8903961181640625,0.51214599609375
1775714566913577500,5.117577392578125,0.1715087890625,-0.94287109375,0.5585479736328125
1775714566923593700,5.12759375,0.1419219970703125,-0.9826507568359375,0.5740814208984375
1775714566933611300,5.137611328125,0.122711181640625,-0.974853515625,0.53759765625
1775714566943627000,5.147626953125,0.09881591796875,-0.967315673828125,0.4585113525390625
1775714566953643000,5.15764306640625,0.0411376953125,-0.9672698974609375,0.3459930419921875
1775714566963659000,5.167658935546875,0.01812744140625,-0.9866943359375,0.2377777099609375
1775714566973676300,5.17767626953125,0.0448760986328125,-1.020294189453125,0.186248779296875
1775714566983692300,5.1876923828125,0.0750274658203125,-1.0351409912109375,0.1693878173828125
1775714566993708000,5.1977080078125,0.1143341064453125,-1.05572509765625,0.1887664794921875
1775714567003724000,5.20772412109375,0.1355438232421875,-1.0770721435546875,0.2153167724609375
1775714567013741300,5.2177412109375,0.17205810546875,-1.119476318359375,0.256927490234375
1775714567023757300,5.22775732421875,0.2403106689453125,-1.1701812744140625,0.300201416015625
1775714567033773000,5.23777294921875,0.306304931640625,-1.1983489990234375,0.3536834716796875
1775714567043789000,5.2477890625,0.3196563720703125,-1.1864471435546875,0.3702239990234375
1775714567053806000,5.25780615234375,0.293304443359375,-1.171112060546875,0.32733154296875
1775714567063822300,5.267822265625,0.2538299560546875,-1.1397705078125,0.25579833984375
1775714567073838300,5.27783837890625,0.1807403564453125,-1.099029541015625,0.187652587890625
1775714567083854000,5.28785400390625,0.16619873046875,-1.1239166259765625,0.18035888671875
1775714567093870000,5.2978701171875,0.1874237060546875,-1.18017578125,0.224334716796875
1775714567103887000,5.30788720703125,0.2220458984375,-1.22991943359375,0.27880859375
1775714567113903000,5.317903076171875,0.2379150390625,-1.2711944580078125,0.3151092529296875
1775714567123919400,5.32791943359375,0.2285308837890625,-1.2731170654296875,0.3217315673828125
1775714567133935000,5.33793505859375,0.204833984375,-1.2458343505859375,0.3360137939453125
1775714567143952100,5.3479521484375,0.160797119140625,-1.2294464111328125,0.3786773681640625
1775714567153968000,5.357968017578125,0.0871429443359375,-1.2289581298828125,0.432342529296875
1775714567163984100,5.367984130859375,0.01019287109375,-1.2317962646484375,0.48394775390625
1775714567174000400,5.37800048828125,-0.0423126220703125,-1.2602386474609375,0.5162811279296875
1775714567184017200,5.38801708984375,-0.0419464111328125,-1.3186492919921875,0.572784423828125
1775714567194033200,5.398033203125,-0.0010986328125,-1.371337890625,0.6165008544921875
1775714567204049200,5.408049072265625,0.0396575927734375,-1.41107177734375,0.613006591796875
1775714567214065200,5.418065185546875,0.090362548828125,-1.4663238525390625,0.58441162109375
1775714567224082200,5.428082275390625,0.1030426025390625,-1.48834228515625,0.5311737060546875
1775714567234098200,5.43809814453125,0.078521728515625,-1.4887847900390625,0.4987945556640625
1775714567244114200,5.4481142578125,0.060821533203125,-1.49560546875,0.4866485595703125
1775714567254130200,5.458130126953125,0.0980682373046875,-1.533966064453125,0.52301025390625
1775714567264146200,5.468146240234375,0.1375274658203125,-1.582275390625,0.5933074951171875
1775714567274163200,5.4781630859375,0.1779022216796875,-1.5781402587890625,0.62188720703125
1775714567284179200,5.48817919921875,0.1744384765625,-1.5545196533203125,0.6213226318359375
1775714567294195200,5.4981953125,0.15167236328125,-1.5812225341796875,0.62896728515625
1775714567304211200,5.508211181640625,0.125640869140625,-1.596710205078125,0.603668212890625
1775714567314228000,5.51822802734375,0.1338043212890625,-1.5726318359375,0.5415802001953125
1775714567324244200,5.528244140625,0.177978515625,-1.5574493408203125,0.473358154296875
1775714567334260200,5.53826025390625,0.236114501953125,-1.5266265869140625,0.42724609375
1775714567344276200,5.548276123046875,0.2882232666015625,-1.5135040283203125,0.433074951171875
1775714567354293000,5.55829296875,0.2882080078125,-1.5094757080078125,0.4769134521484375
1775714567364309000,5.56830908203125,0.271484375,-1.4873809814453125,0.5367889404296875
1775714567374325000,5.578324951171875,0.217437744140625,-1.47882080078125,0.588134765625
1775714567384341200,5.58834130859375,0.157684326171875,-1.4589385986328125,0.6147308349609375
1775714567394357200,5.598357177734375,0.1170196533203125,-1.42333984375,0.59625244140625
1775714567404374000,5.6083740234375,0.097930908203125,-1.3921966552734375,0.5561370849609375
1775714567414390000,5.61839013671875,0.105865478515625,-1.33648681640625,0.50726318359375
1775714567424406000,5.628406005859375,0.11016845703125,-1.2630462646484375,0.46539306640625
1775714567434422300,5.63842236328125,0.0770721435546875,-1.219757080078125,0.44134521484375
1775714567444439300,5.648439208984375,0.0315704345703125,-1.1876983642578125,0.4239959716796875
1775714567454455000,5.658455078125,0.0031280517578125,-1.165740966796875,0.435821533203125
1775714567464471000,5.668470947265625,-0.00958251953125,-1.13861083984375,0.4778594970703125
1775714567474487000,5.678487060546875,-0.011444091796875,-1.0994110107421875,0.5196380615234375
1775714567484504300,5.68850439453125,-0.03338623046875,-1.049285888671875,0.53448486328125
1775714567494520000,5.69852001953125,-0.066375732421875,-1.0254058837890625,0.525604248046875
1775714567504536000,5.7085361328125,-0.0861968994140625,-0.9854583740234375,0.495574951171875
1775714567514552000,5.718552001953125,-0.0798797607421875,-0.962066650390625,0.4482421875
1775714567524568000,5.728568115234375,-0.0275726318359375,-0.96368408203125,0.4079437255859375
1775714567534585300,5.73858544921875,0.0400390625,-0.9495086669921875,0.397003173828125
1775714567544601000,5.74860107421875,0.085845947265625,-0.9261932373046875,0.407318115234375
1775714567554617000,5.7586171875,0.112884521484375,-0.8991851806640625,0.4304351806640625
1775714567564633000,5.768633056640625,0.0984344482421875,-0.8716278076171875,0.4407958984375
1775714567574650000,5.778650146484375,0.08258056640625,-0.85736083984375,0.456298828125
1775714567584666400,5.788666259765625,0.0748291015625,-0.862274169921875,0.4843597412109375
1775714567594682000,5.79868212890625,0.0974884033203125,-0.8741607666015625,0.486419677734375
1775714567604698000,5.808697998046875,0.12860107421875,-0.9071502685546875,0.4573822021484375
1775714567614715100,5.818715087890625,0.14447021484375,-0.9087677001953125,0.3946990966796875
1775714567624731100,5.828731201171875,0.137054443359375,-0.906829833984375,0.32421875
1775714567634747400,5.838747314453125,0.110107421875,-0.9265289306640625,0.2836761474609375
1775714567644763100,5.84876318359375,0.08599853515625,-0.908905029296875,0.243682861328125
1775714567654779100,5.858779052734375,0.091094970703125,-0.88641357421875,0.2085723876953125
1775714567664796200,5.868796142578125,0.0971527099609375,-0.8559722900390625,0.179443359375
1775714567674812200,5.878812255859375,0.0826263427734375,-0.7900390625,0.154693603515625
1775714567684828200,5.888828125,0.0481719970703125,-0.7203216552734375,0.1505584716796875
1775714567694844200,5.89884423828125,-0.016082763671875,-0.666168212890625,0.181182861328125
1775714567704861200,5.908861083984375,-0.0587615966796875,-0.6490936279296875,0.2437896728515625
1775714567714877200,5.918877197265625,-0.060272216796875,-0.636077880859375,0.29656982421875
1775714567724893200,5.92889306640625,-0.0404510498046875,-0.620147705078125,0.330108642578125
1775714567734909200,5.9389091796875,-0.03173828125,-0.6084442138671875,0.3353118896484375
1775714567744925200,5.94892529296875,-0.0345916748046875,-0.5973968505859375,0.3282623291015625
1775714567754942200,5.958942138671875,-0.0228729248046875,-0.6244354248046875,0.3249664306640625
1775714567764958200,5.968958251953125,0.0201416015625,-0.6256561279296875,0.3176727294921875
1775714567774974200,5.97897412109375,0.0495452880859375,-0.5962066650390625,0.3116607666015625
1775714567784990000,5.988989990234375,0.0541839599609375,-0.591522216796875,0.3221282958984375
1775714567795007200,5.99900732421875,0.0256805419921875,-0.5831756591796875,0.3294677734375
1775714567805023200,6.009023193359375,-0.018310546875,-0.58905029296875,0.3327178955078125
1775714567815039200,6.019039306640625,-0.028167724609375,-0.5740203857421875,0.3209686279296875
1775714567825055200,6.02905517578125,-0.02911376953125,-0.530426025390625,0.3083343505859375
1775714567835071000,6.039071044921875,-0.0179901123046875,-0.4741363525390625,0.3052978515625
1775714567845088300,6.049088134765625,-0.0214996337890625,-0.478912353515625,0.3221435546875
1775714567855104300,6.059104248046875,-0.020416259765625,-0.5168609619140625,0.3348236083984375
1775714567865120300,6.069120361328125,0.00421142578125,-0.5339813232421875,0.328826904296875
1775714567875136300,6.07913623046875,0.064117431640625,-0.5242462158203125,0.3253936767578125
1775714567885153000,6.089153076171875,0.1074981689453125,-0.483154296875,0.3220062255859375
1775714567895169300,6.099169189453125,0.0969696044921875,-0.4432373046875,0.3518524169921875
1775714567905185300,6.109185302734375,0.06781005859375,-0.413299560546875,0.418548583984375
1775714567915201300,6.119201171875,0.03466796875,-0.3801727294921875,0.4846038818359375
1775714567925217000,6.129217041015625,-0.0240631103515625,-0.3956146240234375,0.55633544921875
1775714567935234300,6.139234375,-0.1186676025390625,-0.4494476318359375,0.589080810546875
1775714567945250300,6.149250244140625,-0.2156219482421875,-0.496246337890625,0.545257568359375
1775714567955266300,6.159266357421875,-0.264617919921875,-0.5282440185546875,0.4311065673828125
1775714567965282300,6.1692822265625,-0.211212158203125,-0.547454833984375,0.2901458740234375
1775714567975298000,6.179298095703125,-0.0922393798828125,-0.5652008056640625,0.184661865234375
1775714567985315000,6.189315185546875,0.02972412109375,-0.58056640625,0.1389007568359375
1775714567995331300,6.199331298828125,0.110321044921875,-0.6272735595703125,0.166534423828125
1775714568005347300,6.209347412109375,0.1174774169921875,-0.6858673095703125,0.244110107421875
1775714568015363300,6.21936328125,0.031097412109375,-0.7664337158203125,0.3521575927734375
1775714568025380000,6.229380126953125,-0.111724853515625,-0.8808746337890625,0.436279296875
1775714568035396000,6.23939599609375,-0.216552734375,-0.9344635009765625,0.4457550048828125
1775714568045412400,6.249412353515625,-0.2762908935546875,-0.9378509521484375,0.412872314453125
1775714568055428400,6.259428466796875,-0.3069915771484375,-0.930877685546875,0.34832763671875
1775714568065444400,6.2694443359375,-0.30108642578125,-0.907318115234375,0.2736968994140625
1775714568075461000,6.279461181640625,-0.2579345703125,-0.8954925537109375,0.2454986572265625
1775714568085477000,6.28947705078125,-0.195281982421875,-0.88043212890625,0.2628936767578125
1775714568095493000,6.2994931640625,-0.1480255126953125,-0.900421142578125,0.3347015380859375
1775714568105509400,6.30950927734375,-0.0996551513671875,-0.955291748046875,0.4390411376953125
1775714568115525000,6.319525146484375,-0.082366943359375,-0.9933929443359375,0.5326995849609375
1775714568125542100,6.329542236328125,-0.0884552001953125,-1.0155029296875,0.58837890625
1775714568135558100,6.33955810546875,-0.083282470703125,-1.006500244140625,0.6068878173828125
1775714568145574100,6.34957421875,-0.0950164794921875,-0.99774169921875,0.61175537109375
1775714568155590400,6.35959033203125,-0.1081085205078125,-0.9925079345703125,0.5951385498046875
1775714568165607200,6.369607177734375,-0.10760498046875,-0.9614105224609375,0.54058837890625
1775714568175623200,6.379623046875,-0.0883026123046875,-0.93682861328125,0.473663330078125
1775714568185639200,6.38963916015625,-0.0711822509765625,-0.9285430908203125,0.4302825927734375
1775714568195655200,6.3996552734375,-0.0830230712890625,-0.9385833740234375,0.4276580810546875
1775714568205671400,6.40967138671875,-0.0874481201171875,-0.95343017578125,0.44891357421875
1775714568215688200,6.419688232421875,-0.0819091796875,-0.9676666259765625,0.4776153564453125
1775714568225704200,6.4297041015625,-0.071929931640625,-0.9866485595703125,0.497283935546875
1775714568235720200,6.43972021484375,-0.05126953125,-0.986175537109375,0.4906768798828125
1775714568245736200,6.449736083984375,-0.0383148193359375,-0.968902587890625,0.4615631103515625
1775714568255752200,6.459752197265625,-0.039794921875,-0.958831787109375,0.43603515625
1775714568265769200,6.469769287109375,-0.0425872802734375,-0.933837890625,0.4191436767578125
1775714568275785200,6.47978515625,-0.0650787353515625,-0.9157867431640625,0.4241485595703125
1775714568285801200,6.48980126953125,-0.1027984619140625,-0.9258880615234375,0.428558349609375
1775714568295817200,6.499817138671875,-0.1303558349609375,-0.9318084716796875,0.4063873291015625
1775714568305834200,6.509834228515625,-0.1331024169921875,-0.925201416015625,0.392425537109375
1775714568315850200,6.519850341796875,-0.129669189453125,-0.9188385009765625,0.3966827392578125
1775714568325866200,6.5298662109375,-0.0942230224609375,-0.9134063720703125,0.396240234375
1775714568335882200,6.53988232421875,-0.0355377197265625,-0.9062957763671875,0.3801422119140625
1775714568345898200,6.549898193359375,-0.0035858154296875,-0.9078216552734375,0.4007110595703125
1775714568355915300,6.559915283203125,-0.00201416015625,-0.9219970703125,0.440765380859375
1775714568365931300,6.56993115234375,-0.0094757080078125,-0.9266204833984375,0.4482879638671875
1775714568375947300,6.579947265625,-0.0036163330078125,-0.9089508056640625,0.415130615234375
1775714568385963300,6.58996337890625,-0.00775146484375,-0.888031005859375,0.3861846923828125
1775714568395979300,6.599979248046875,-0.0270538330078125,-0.871826171875,0.3817596435546875
1775714568405996000,6.60999609375,-0.0575408935546875,-0.862060546875,0.3978271484375
1775714568416012300,6.62001220703125,-0.0752410888671875,-0.867919921875,0.41851806640625
1775714568426028300,6.6300283203125,-0.0677642822265625,-0.8703155517578125,0.4289093017578125
1775714568436044300,6.640044189453125,-0.0450439453125,-0.8787841796875,0.4334869384765625
1775714568446060300,6.650060302734375,-0.0243988037109375,-0.8858642578125,0.4408111572265625
1775714568456077000,6.6600771484375,-0.019622802734375,-0.8786773681640625,0.438934326171875
1775714568466093300,6.67009326171875,-0.0105743408203125,-0.8852691650390625,0.43402099609375
1775714568476109300,6.680109375,-0.006378173828125,-0.8986053466796875,0.4324798583984375
1775714568486125300,6.690125244140625,-0.007537841796875,-0.9063262939453125,0.431732177734375
1775714568496141300,6.700141357421875,0.002166748046875,-0.9145050048828125,0.43475341796875
1775714568506158000,6.710157958984375,-0.0074920654296875,-0.9156951904296875,0.4295501708984375
1775714568516174000,6.720174072265625,-0.020965576171875,-0.9232177734375,0.427154541015625
1775714568526190300,6.7301904296875,-0.0337066650390625,-0.9242706298828125,0.4227142333984375
1775714568536206300,6.740206298828125,-0.044342041015625,-0.907196044921875,0.41455078125
1775714568546222300,6.750222412109375,-0.053375244140625,-0.9017181396484375,0.4167327880859375
1775714568556239000,6.760239013671875,-0.0485992431640625,-0.912200927734375,0.4168701171875
1775714568566255000,6.770255126953125,-0.0540924072265625,-0.91253662109375,0.4212799072265625
1775714568576271400,6.780271240234375,-0.066162109375,-0.913055419921875,0.4197998046875
1775714568586287400,6.790287353515625,-0.06927490234375,-0.91802978515625,0.410430908203125
1775714568596303000,6.80030322265625,-0.0652923583984375,-0.9135589599609375,0.399169921875
1775714568606320000,6.810320068359375,-0.0528411865234375,-0.910675048828125,0.3925933837890625
1775714568616336100,6.820336181640625,-0.028350830078125,-0.919097900390625,0.3951873779296875
1775714568626352400,6.830352294921875,0.00262451171875,-0.9290618896484375,0.4008941650390625
1775714568636368400,6.840368408203125,0.013946533203125,-0.9345245361328125,0.4103240966796875
1775714568646384000,6.850384033203125,0.0098114013671875,-0.942657470703125,0.4257049560546875
1775714568656401200,6.860401123046875,0.00604248046875,-0.9540252685546875,0.4333953857421875
1775714568666417200,6.870417236328125,-0.0032196044921875,-0.9585723876953125,0.4248199462890625
1775714568676433200,6.88043310546875,-0.0106658935546875,-0.960693359375,0.409515380859375
1775714568686449400,6.890449462890625,-0.0433197021484375,-0.942657470703125,0.3860626220703125
1775714568696465200,6.900465087890625,-0.0638885498046875,-0.9422760009765625,0.366180419921875
1775714568706482200,6.910482177734375,-0.0699310302734375,-0.940399169921875,0.3577728271484375
1775714568716498200,6.920498291015625,-0.062774658203125,-0.9227447509765625,0.353973388671875
1775714568726514200,6.93051416015625,-0.0594940185546875,-0.899444580078125,0.354522705078125
1775714568736530200,6.9405302734375,-0.0662078857421875,-0.8909759521484375,0.3753204345703125
1775714568746546200,6.950546142578125,-0.0708160400390625,-0.890594482421875,0.403656005859375
1775714568756563200,6.960563232421875,-0.07855224609375,-0.8861846923828125,0.426116943359375
1775714568766579200,6.9705791015625,-0.0798187255859375,-0.87152099609375,0.4215240478515625
1775714568776595200,6.98059521484375,-0.0705718994140625,-0.85418701171875,0.388702392578125
1775714568786611200,6.990611083984375,-0.0579833984375,-0.8352813720703125,0.3446197509765625
1775714568796627200,7.000627197265625,-0.0527801513671875,-0.8013916015625,0.304901123046875
1775714568806644200,7.010644287109375,-0.02166748046875,-0.7574920654296875,0.2641448974609375
1775714568816660200,7.02066015625,-0.013153076171875,-0.7079925537109375,0.2468719482421875
1775714568826676200,7.03067626953125,-0.0229644775390625,-0.6800384521484375,0.284515380859375
1775714568836692000,7.04069189453125,-0.0169219970703125,-0.67364501953125,0.3513946533203125
1775714568846708200,7.050708251953125,-0.0034637451171875,-0.6545562744140625,0.4150848388671875
1775714568856725200,7.060725341796875,0.0188140869140625,-0.6530914306640625,0.4848175048828125
1775714568866741200,7.0707412109375,0.0579376220703125,-0.65533447265625,0.525390625
1775714568876757200,7.08075732421875,0.0994873046875,-0.624603271484375,0.52569580078125
1775714568886773000,7.09077294921875,0.11712646484375,-0.60076904296875,0.5189971923828125
1775714568896789200,7.100789306640625,0.0986785888671875,-0.5635833740234375,0.4934539794921875
1775714568906806300,7.11080615234375,0.0573272705078125,-0.5350341796875,0.476318359375
1775714568916822300,7.120822265625,0.0047607421875,-0.5275115966796875,0.4703369140625
1775714568926838300,7.13083837890625,-0.05029296875,-0.4980621337890625,0.4508819580078125
1775714568936853500,7.140853515625,-0.115997314453125,-0.4967041015625,0.4467620849609375
1775714568946869200,7.150869140625,-0.17572021484375,-0.5274810791015625,0.4609375
1775714568956886500,7.160886474609375,-0.201446533203125,-0.54913330078125,0.474090576171875
1775714568966902500,7.170902587890625,-0.188934326171875,-0.5748443603515625,0.47662353515625
1775714568976918500,7.18091845703125,-0.1543426513671875,-0.5927276611328125,0.4503326416015625
1775714568986934500,7.1909345703125,-0.119720458984375,-0.594940185546875,0.421875
1775714568996950300,7.2009501953125,-0.0866851806640625,-0.6196136474609375,0.4337310791015625
1775714569006966300,7.21096630859375,-0.0491180419921875,-0.645904541015625,0.4670257568359375
1775714569016983600,7.220983642578125,-0.0110931396484375,-0.669219970703125,0.4867095947265625
1775714569026999600,7.23099951171875,0.02044677734375,-0.690643310546875,0.49139404296875
1775714569037015600,7.241015625,0.0217437744140625,-0.6997528076171875,0.4791107177734375
1775714569047031300,7.25103125,0.008026123046875,-0.705963134765625,0.454864501953125
1775714569057047300,7.26104736328125,-0.0141448974609375,-0.7012786865234375,0.4176483154296875
1775714569067064600,7.271064697265625,-0.022979736328125,-0.68695068359375,0.3779449462890625
1775714569077080600,7.28108056640625,-0.0274200439453125,-0.6548919677734375,0.344757080078125
1775714569087096600,7.2910966796875,-0.0567626953125,-0.65570068359375,0.33856201171875
1775714569097112300,7.3011123046875,-0.07757568359375,-0.6931610107421875,0.35272216796875
1775714569107128300,7.31112841796875,-0.07733154296875,-0.733673095703125,0.3902435302734375
1775714569117145600,7.3211455078125,-0.041015625,-0.7720794677734375,0.4389190673828125
1775714569127161600,7.33116162109375,0.0194244384765625,-0.784027099609375,0.4579010009765625
1775714569137177300,7.34117724609375,0.06671142578125,-0.798736572265625,0.44873046875
1775714569147193300,7.351193359375,0.0980682373046875,-0.8099365234375,0.430389404296875
1775714569157209300,7.361209228515625,0.1339263916015625,-0.8001708984375,0.4002838134765625
1775714569167225300,7.371225341796875,0.1625823974609375,-0.8215484619140625,0.3827972412109375
1775714569177242600,7.38124267578125,0.162384033203125,-0.842987060546875,0.3756256103515625
1775714569187258400,7.39125830078125,0.16632080078125,-0.8366546630859375,0.3651580810546875
1775714569197274400,7.4012744140625,0.161285400390625,-0.8220672607421875,0.3585968017578125
1775714569207290400,7.411290283203125,0.1357269287109375,-0.7942657470703125,0.3676910400390625
1775714569217306400,7.421306396484375,0.12896728515625,-0.7875213623046875,0.4112701416015625
1775714569227323600,7.43132373046875,0.15985107421875,-0.8258209228515625,0.4661865234375
1775714569237339400,7.44133935546875,0.241180419921875,-0.872802734375,0.4755401611328125
1775714569247355400,7.45135546875,0.34002685546875,-0.899444580078125,0.45501708984375
1775714569257371400,7.461371337890625,0.4135284423828125,-0.9154510498046875,0.4314727783203125
1775714569267387400,7.471387451171875,0.44146728515625,-0.9427032470703125,0.415985107421875
1775714569277403400,7.4814033203125,0.4439697265625,-0.9481048583984375,0.4174041748046875
1775714569287420400,7.49142041015625,0.440704345703125,-0.9572296142578125,0.4441070556640625
1775714569297436400,7.5014365234375,0.4422454833984375,-0.9651947021484375,0.4541015625
1775714569307452400,7.511452392578125,0.4053802490234375,-0.9555206298828125,0.4132080078125
1775714569317468400,7.521468505859375,0.3502197265625,-0.951171875,0.3662872314453125
1775714569327484400,7.531484375,0.2986907958984375,-0.96905517578125,0.33551025390625
1775714569337501400,7.54150146484375,0.2436065673828125,-0.984649658203125,0.3247222900390625
1775714569347517400,7.551517333984375,0.204437255859375,-1.0049285888671875,0.3122406005859375
1775714569357533400,7.561533447265625,0.200469970703125,-1.0299530029296875,0.288665771484375
1775714569367549400,7.571549560546875,0.1982574462890625,-1.049713134765625,0.2843017578125
1775714569377565400,7.5815654296875,0.1935882568359375,-1.0796356201171875,0.3140869140625
1775714569387581400,7.59158154296875,0.1682891845703125,-1.103912353515625,0.3694610595703125
1775714569397598500,7.601598388671875,0.1066741943359375,-1.1170196533203125,0.4549102783203125
1775714569407614500,7.611614501953125,0.0117950439453125,-1.1257781982421875,0.53192138671875
1775714569417630500,7.62163037109375,-0.066314697265625,-1.106658935546875,0.550384521484375
1775714569427646500,7.631646484375,-0.117156982421875,-1.07037353515625,0.51629638671875
1775714569437662500,7.641662353515625,-0.1468353271484375,-1.0490875244140625,0.477203369140625
1775714569447679500,7.651679443359375,-0.1565704345703125,-1.04974365234375,0.4488983154296875
1775714569457695500,7.661695556640625,-0.1396636962890625,-1.04150390625,0.38983154296875
1775714569467711500,7.67171142578125,-0.091033935546875,-1.065521240234375,0.341033935546875
1775714569477727500,7.6817275390625,-0.010833740234375,-1.1376800537109375,0.3396453857421875
1775714569487743500,7.691743408203125,0.081298828125,-1.193084716796875,0.37396240234375
1775714569497759200,7.70175927734375,0.155120849609375,-1.2442626953125,0.437347412109375
1775714569507776500,7.711776611328125,0.2141876220703125,-1.29229736328125,0.4859771728515625
1775714569517792500,7.72179248046875,0.225555419921875,-1.298370361328125,0.4949951171875
1775714569527808500,7.73180859375,0.1829833984375,-1.282318115234375,0.4864654541015625
1775714569537824500,7.741824462890625,0.114959716796875,-1.2761688232421875,0.4585418701171875
1775714569547840300,7.75184033203125,0.062652587890625,-1.2710723876953125,0.39141845703125
1775714569557856500,7.7618564453125,0.02874755859375,-1.263458251953125,0.3112335205078125
1775714569567873500,7.77187353515625,0.0275115966796875,-1.289886474609375,0.252899169921875
1775714569577889500,7.7818896484375,0.0629425048828125,-1.33984375,0.2256622314453125
1775714569587905300,7.7919052734375,0.1115264892578125,-1.371612548828125,0.232879638671875
1775714569597921300,7.80192138671875,0.1531524658203125,-1.4107666015625,0.2692718505859375
1775714569607937300,7.811937255859375,0.1855010986328125,-1.4383697509765625,0.291961669921875
1775714569617954600,7.82195458984375,0.2254486083984375,-1.451904296875,0.303070068359375
1775714569627970600,7.831970458984375,0.261260986328125,-1.484039306640625,0.327880859375
1775714569637986300,7.841986328125,0.302398681640625,-1.5032501220703125,0.3571319580078125
1775714569648002300,7.852002197265625,0.324493408203125,-1.486541748046875,0.3807525634765625
1775714569658018300,7.862018310546875,0.3011932373046875,-1.46771240234375,0.3956298828125
1775714569668034600,7.87203466796875,0.22174072265625,-1.475982666015625,0.4012451171875
1775714569678051600,7.882051513671875,0.1357879638671875,-1.468048095703125,0.3729095458984375
1775714569688067300,7.8920673828125,0.0894775390625,-1.457916259765625,0.3471832275390625
1775714569698083300,7.902083251953125,0.092987060546875,-1.469696044921875,0.35638427734375
1775714569708099300,7.912099365234375,0.1007537841796875,-1.493011474609375,0.376312255859375
1775714569718115300,7.922115234375,0.1177215576171875,-1.5053253173828125,0.377471923828125
1775714569728131600,7.932131591796875,0.133148193359375,-1.5020599365234375,0.371673583984375
1775714569738148400,7.9421484375,0.1423187255859375,-1.452911376953125,0.3543243408203125
1775714569748164400,7.952164306640625,0.1116790771484375,-1.4014434814453125,0.3498077392578125
1775714569758180400,7.962180419921875,0.0723419189453125,-1.366973876953125,0.3544158935546875
1775714569768196400,7.9721962890625,0.04449462890625,-1.305023193359375,0.34124755859375
1775714569778212600,7.982212646484375,0.0260772705078125,-1.25048828125,0.3249053955078125
1775714569788228600,7.992228515625,0.030914306640625,-1.2019805908203125,0.322479248046875
1775714569798245400,8.002245361328125,0.030792236328125,-1.1611328125,0.338592529296875
1775714569808261400,8.012261474609375,0.010345458984375,-1.1598358154296875,0.3688201904296875
1775714569818277400,8.02227734375,-0.0156097412109375,-1.15386962890625,0.3724822998046875
1775714569828293600,8.032293701171875,0.0012664794921875,-1.132659912109375,0.3482818603515625
1775714569838309600,8.0423095703125,0.0362091064453125,-1.110931396484375,0.3104705810546875
1775714569848325400,8.052325439453124,0.0662994384765625,-1.0757904052734375,0.2793121337890625
1775714569858342400,8.06234228515625,0.0780029296875,-1.040435791015625,0.2770843505859375
1775714569868358400,8.0723583984375,0.0823516845703125,-1.024383544921875,0.2964324951171875
1775714569878374400,8.08237451171875,0.0906829833984375,-1.000640869140625,0.310455322265625
1775714569888390700,8.092390625,0.077484130859375,-0.97113037109375,0.315582275390625
1775714569898406400,8.102406494140626,0.0449371337890625,-0.946319580078125,0.31805419921875
1775714569908422400,8.11242236328125,0.019744873046875,-0.9107513427734375,0.316558837890625
1775714569918439400,8.122439453125,0.01617431640625,-0.8763580322265625,0.308807373046875
1775714569928455400,8.132455322265624,0.014892578125,-0.8545074462890625,0.3032379150390625
1775714569938471700,8.1424716796875,0.0012664794921875,-0.856719970703125,0.3071441650390625
1775714569948487700,8.15248779296875,-0.0133056640625,-0.8744964599609375,0.2893524169921875
1775714569958503700,8.162503662109375,-0.0062103271484375,-0.875,0.2450103759765625
1775714569968519700,8.172519775390626,0.0236053466796875,-0.8557281494140625,0.201934814453125
1775714569978536700,8.18253662109375,0.0511474609375,-0.8349761962890625,0.1773223876953125
1775714569988552400,8.192552490234375,0.0579071044921875,-0.830780029296875,0.1959686279296875
1775714569998568400,8.202568359375,0.0527496337890625,-0.8331146240234375,0.23492431640625
1775714570008584700,8.212584716796876,0.0419158935546875,-0.8451385498046875,0.2651214599609375
1775714570018600700,8.2226005859375,0.01824951171875,-0.89300537109375,0.2665863037109375
1775714570028616700,8.23261669921875,0.0092620849609375,-0.9155731201171875,0.2190093994140625
1775714570038633500,8.242633544921874,0.0083160400390625,-0.90081787109375,0.14373779296875
1775714570048649500,8.2526494140625,0.008819580078125,-0.8740081787109375,0.087249755859375
1775714570058665700,8.262665771484375,0.029754638671875,-0.8398590087890625,0.0697479248046875
1775714570068681700,8.272681640625,0.089080810546875,-0.7921600341796875,0.094512939453125
1775714570078697700,8.28269775390625,0.1328125,-0.761138916015625,0.182220458984375
1775714570088713700,8.292713623046875,0.1239776611328125,-0.7870635986328125,0.2884979248046875
1775714570098729700,8.302729736328125,0.0811004638671875,-0.8215789794921875,0.3416748046875
1775714570108746800,8.312746826171875,0.0578155517578125,-0.8269195556640625,0.345489501953125
1775714570118762800,8.3227626953125,0.0496368408203125,-0.837738037109375,0.3294219970703125
1775714570128778800,8.33277880859375,0.069091796875,-0.83819580078125,0.304443359375
1775714570138794800,8.342794677734375,0.1252593994140625,-0.813140869140625,0.2720184326171875
1775714570148810800,8.352810791015624,0.203216552734375,-0.7621917724609375,0.229278564453125
1775714570158826500,8.362826416015626,0.2752227783203125,-0.701507568359375,0.194671630859375
1775714570168843800,8.37284375,0.2855072021484375,-0.6606292724609375,0.2048492431640625
1775714570178859800,8.38285986328125,0.1915740966796875,-0.685638427734375,0.27685546875
1775714570188875800,8.392875732421874,0.049774169921875,-0.739776611328125,0.3209381103515625
1775714570198891500,8.4028916015625,-0.0544281005859375,-0.7268218994140625,0.278656005859375
1775714570208907500,8.412907470703125,-0.0964508056640625,-0.66400146484375,0.1893463134765625
1775714570218923500,8.422923583984375,-0.09027099609375,-0.593963623046875,0.10552978515625
1775714570228940800,8.43294091796875,-0.0726165771484375,-0.540008544921875,0.0527496337890625
1775714570238956800,8.442956787109376,-0.0505828857421875,-0.506500244140625,0.0302886962890625
1775714570248972500,8.45297265625,-0.009521484375,-0.4958648681640625,0.044036865234375
1775714570258988500,8.462988525390625,0.02972412109375,-0.484375,0.0775146484375
1775714570269004500,8.473004638671876,0.0418548583984375,-0.508056640625,0.1464996337890625
1775714570279020500,8.4830205078125,-0.0028076171875,-0.577789306640625,0.242431640625
1775714570289036800,8.493036865234375,-0.0948486328125,-0.6333770751953125,0.29132080078125
1775714570299053600,8.503053466796874,-0.162017822265625,-0.669464111328125,0.28643798828125
1775714570309069600,8.513069580078126,-0.1968536376953125,-0.688232421875,0.2431640625
1775714570319085600,8.52308544921875,-0.2225799560546875,-0.7097930908203125,0.1823883056640625
1775714570329101600,8.5331015625,-0.22802734375,-0.751495361328125,0.1140899658203125
1775714570339117800,8.543117919921874,-0.2156219482421875,-0.81829833984375,0.0495452880859375
1775714570349133800,8.5531337890625,-0.165985107421875,-0.8908538818359375,-0.01251220703125
1775714570359149600,8.563149658203125,-0.0904693603515625,-0.929107666015625,-0.0683441162109375
1775714570369166600,8.57316650390625,-0.0290069580078125,-0.944610595703125,-0.1032867431640625
1775714570379182600,8.5831826171875,0.01873779296875,-0.9581756591796875,-0.0858001708984375
1775714570389198600,8.593198486328125,0.0220794677734375,-0.9686431884765625,-0.000640869140625
1775714570399214800,8.60321484375,-0.01300048828125,-0.9903411865234375,0.127593994140625
1775714570409230600,8.613230712890624,-0.052886962890625,-1.002716064453125,0.23248291015625
1775714570419246600,8.62324658203125,-0.0633392333984375,-0.9956817626953125,0.3018798828125
1775714570429263600,8.633263671875,-0.058990478515625,-0.9879608154296875,0.3362274169921875
1775714570439279600,8.643279541015625,-0.0365447998046875,-0.966888427734375,0.32598876953125
1775714570449296000,8.6532958984375,-0.0035400390625,-0.9571990966796875,0.318939208984375
1775714570459311600,8.6633115234375,0.0269012451171875,-0.969146728515625,0.317626953125
1775714570469327600,8.67332763671875,0.054443359375,-0.9785614013671875,0.297271728515625
1775714570479343600,8.683343505859375,0.0602569580078125,-0.9875640869140625,0.290283203125
1775714570489359600,8.693359619140624,0.0487518310546875,-0.9856414794921875,0.3056488037109375
1775714570499376600,8.703376708984376,0.0189361572265625,-0.9839019775390625,0.332855224609375
1775714570509392600,8.713392578125,-0.0198974609375,-0.982666015625,0.360382080078125
1775714570519408600,8.72340869140625,-0.0473175048828125,-0.9692535400390625,0.37030029296875
1775714570529424600,8.733424560546876,-0.0630950927734375,-0.970550537109375,0.3661651611328125
1775714570539440600,8.743440673828125,-0.069610595703125,-0.972991943359375,0.3475799560546875
1775714570549456600,8.75345654296875,-0.0743560791015625,-0.9683685302734375,0.3346099853515625
1775714570559472600,8.76347265625,-0.0531005859375,-0.9757080078125,0.3242645263671875
1775714570569489700,8.77348974609375,-0.0040283203125,-0.9742889404296875,0.3150634765625
1775714570579505700,8.783505615234375,0.0547332763671875,-0.9705352783203125,0.31787109375
1775714570589521700,8.793521728515625,0.1124725341796875,-0.97467041015625,0.33685302734375
1775714570599537700,8.80353759765625,0.14569091796875,-0.976898193359375,0.3637847900390625
1775714570609553700,8.8135537109375,0.16290283203125,-0.973846435546875,0.38751220703125
1775714570619569700,8.823569580078125,0.1660919189453125,-0.9673309326171875,0.3986053466796875
1775714570629585700,8.833585693359375,0.153961181640625,-0.9479217529296875,0.3930206298828125
1775714570639602700,8.843602783203124,0.1251678466796875,-0.9229278564453125,0.3929443359375
1775714570649618700,8.85361865234375,0.086761474609375,-0.9040374755859375,0.4055328369140625
1775714570659634700,8.863634765625,0.0413665771484375,-0.8983917236328125,0.4071197509765625
1775714570669650400,8.873650390625,0.019317626953125,-0.9017333984375,0.3889617919921875
1775714570679666700,8.883666748046876,-0.0051116943359375,-0.9049224853515625,0.362396240234375
1775714570689682700,8.8936826171875,-0.0317535400390625,-0.9174957275390625,0.3513336181640625
1775714570699698700,8.90369873046875,-0.03802490234375,-0.95135498046875,0.335296630859375
1775714570709715700,8.9137158203125,-0.0288238525390625,-0.9701080322265625,0.2895965576171875
1775714570719731500,8.9237314453125,-0.023712158203125,-0.983245849609375,0.2512359619140625
1775714570729747500,8.93374755859375,-0.0336761474609375,-1.0018768310546875,0.2172393798828125
1775714570739763700,8.943763671875,-0.025238037109375,-0.9986572265625,0.172119140625
1775714570749779700,8.95377978515625,-0.053741455078125,-1.0070648193359375,0.1605987548828125
1775714570759795700,8.963795654296876,-0.0948486328125,-1.032562255859375,0.1833343505859375
1775714570769811700,8.973811767578125,-0.1331939697265625,-1.03985595703125,0.1884613037109375
1775714570779828500,8.983828369140625,-0.1537933349609375,-1.0316314697265625,0.1748046875
1775714570789844700,8.9938447265625,-0.1493682861328125,-1.016021728515625,0.165802001953125
1775714570799860700,9.00386083984375,-0.147735595703125,-0.9979095458984375,0.1645660400390625
1775714570809876700,9.013876708984375,-0.13128662109375,-0.967193603515625,0.1500701904296875
1775714570819892700,9.023892822265625,-0.1175689697265625,-0.9535980224609375,0.1461944580078125
1775714570829908700,9.03390869140625,-0.0973358154296875,-0.967529296875,0.1701812744140625
1775714570839924500,9.043924560546875,-0.048583984375,-0.9705352783203125,0.2004547119140625
1775714570849941800,9.053941650390625,-0.005462646484375,-0.9715118408203125,0.244842529296875
1775714570859957800,9.063957763671874,0.0126800537109375,-0.9735870361328125,0.2866058349609375
1775714570869973800,9.073973876953126,0.01690673828125,-0.976959228515625,0.3038177490234375
1775714570879989500,9.083989501953125,-0.0010833740234375,-0.978179931640625,0.303131103515625
1775714570890005500,9.094005615234375,-0.0202178955078125,-0.9711151123046875,0.2924041748046875
1775714570900021500,9.104021484375,-0.0312957763671875,-0.96051025390625,0.2659912109375
1775714570910037800,9.114037841796875,-0.0232696533203125,-0.947418212890625,0.239898681640625
1775714570920053800,9.1240537109375,-0.0239105224609375,-0.9408111572265625,0.2303466796875
1775714570930070500,9.134070556640625,-0.0105438232421875,-0.9312591552734375,0.2294921875
1775714570940086800,9.144086669921874,-0.003387451171875,-0.918975830078125,0.236602783203125
1775714570950102800,9.154102783203125,0.0056304931640625,-0.9114532470703125,0.2574920654296875
1775714570960119000,9.164119140625,0.0156707763671875,-0.9067840576171875,0.2808685302734375
1775714570970135000,9.174135009765624,0.0372772216796875,-0.8885650634765625,0.285003662109375
1775714570980151000,9.184151123046876,0.0634918212890625,-0.8638458251953125,0.277374267578125
1775714570990166800,9.194166748046875,0.0788726806640625,-0.841400146484375,0.2714385986328125
1775714571000183800,9.204183837890625,0.0783233642578125,-0.8226470947265625,0.2653961181640625
1775714571010199800,9.21419970703125,0.05572509765625,-0.7984466552734375,0.2674102783203125
1775714571020216000,9.224216064453126,0.0350341796875,-0.7782135009765625,0.2762451171875
1775714571030232000,9.234232177734375,0.029388427734375,-0.7524566650390625,0.2787017822265625
1775714571040247800,9.244247802734375,0.0321502685546875,-0.729705810546875,0.2857666015625
1775714571050263800,9.254263916015624,0.04248046875,-0.7121429443359375,0.3046112060546875
1775714571060279800,9.26427978515625,0.0536041259765625,-0.6954803466796875,0.31109619140625
1775714571070295800,9.2742958984375,0.0535125732421875,-0.6757354736328125,0.293365478515625
1775714571080313000,9.28431298828125,0.0441741943359375,-0.653289794921875,0.2892608642578125
1775714571090328800,9.294328857421876,0.035186767578125,-0.61688232421875,0.310455322265625
1775714571100344800,9.3043447265625,0.02081298828125,-0.5836944580078125,0.3326873779296875
1775714571110360800,9.31436083984375,0.0107574462890625,-0.57025146484375,0.3503875732421875
1775714571120376800,9.324376953125,0.0043182373046875,-0.56011962890625,0.3614654541015625
1775714571130392800,9.334392822265626,-0.00848388671875,-0.5535125732421875,0.3627777099609375
1775714571140409000,9.3444091796875,-0.015472412109375,-0.560089111328125,0.3747100830078125
1775714571150424800,9.3544248046875,-0.0356292724609375,-0.5742340087890625,0.3923492431640625
1775714571160441900,9.36444189453125,-0.047943115234375,-0.580535888671875,0.392120361328125
1775714571170457900,9.374457763671876,-0.03778076171875,-0.584686279296875,0.37457275390625
1775714571180473900,9.384473876953125,-0.0194549560546875,-0.6000518798828125,0.36199951171875
1775714571190490000,9.394489990234375,-0.0016937255859375,-0.6085357666015625,0.3534393310546875
1775714571200505900,9.404505859375,-0.0109710693359375,-0.6348114013671875,0.3594818115234375
1775714571210521900,9.41452197265625,-0.0362091064453125,-0.67315673828125,0.3898162841796875
1775714571220537900,9.424537841796875,-0.070709228515625,-0.7027130126953125,0.412750244140625
1775714571230555000,9.434554931640625,-0.088531494140625,-0.718902587890625,0.4101715087890625
1775714571240571100,9.444571044921876,-0.104705810546875,-0.7326202392578125,0.402984619140625
1775714571250587000,9.4545869140625,-0.118865966796875,-0.7409515380859375,0.3935089111328125
1775714571260603000,9.464602783203125,-0.1453094482421875,-0.7537841796875,0.3781280517578125
1775714571270619000,9.474618896484374,-0.1714324951171875,-0.7799835205078125,0.3626251220703125
1775714571280635000,9.484634765625,-0.1754150390625,-0.8133697509765625,0.3394012451171875
1775714571290651000,9.49465087890625,-0.155517578125,-0.8697509765625,0.3249359130859375
1775714571300667000,9.5046669921875,-0.13677978515625,-0.918914794921875,0.327392578125
1775714571310684000,9.514683837890624,-0.113189697265625,-0.9568328857421875,0.3355712890625
1775714571320700000,9.524699951171876,-0.084747314453125,-0.98309326171875,0.334747314453125
1775714571330716000,9.5347158203125,-0.064117431640625,-1.0054168701171875,0.3245086669921875
1775714571340732000,9.54473193359375,-0.05047607421875,-1.0100860595703125,0.30413818359375
1775714571350748000,9.554747802734376,-0.05657958984375,-0.99249267578125,0.2683563232421875
1775714571360764000,9.564763916015625,-0.0858001708984375,-0.9693756103515625,0.23284912109375
1775714571370780000,9.57477978515625,-0.1248016357421875,-0.952423095703125,0.2309722900390625
1775714571380796000,9.5847958984375,-0.1559906005859375,-0.9423675537109375,0.25091552734375
1775714571390812000,9.59481201171875,-0.168182373046875,-0.9398193359375,0.2473602294921875
1775714571400829000,9.604828857421875,-0.166534423828125,-0.9591827392578125,0.213043212890625
1775714571410845000,9.614844970703125,-0.1368560791015625,-0.9884490966796875,0.1819610595703125
1775714571420861000,9.62486083984375,-0.094512939453125,-0.993194580078125,0.1587677001953125
1775714571430877000,9.634876953125,-0.0634002685546875,-1.00555419921875,0.13470458984375
1775714571440893000,9.644892822265625,-0.04144287109375,-1.0378265380859375,0.108612060546875
1775714571450909000,9.654908935546874,-0.02960205078125,-1.0449371337890625,0.092987060546875
1775714571460925000,9.664925048828126,-0.033538818359375,-1.0439605712890625,0.0950775146484375
1775714571470941000,9.67494091796875,-0.0397491455078125,-1.0518951416015625,0.096221923828125
1775714571480958000,9.6849580078125,-0.055816650390625,-1.0541839599609375,0.0839691162109375
1775714571490974000,9.694973876953124,-0.0658416748046875,-1.054107666015625,0.069976806640625
1775714571500990000,9.704989990234376,-0.0697174072265625,-1.06060791015625,0.0582427978515625
1775714571511006000,9.715005859375,-0.04949951171875,-1.060882568359375,0.0536956787109375
1775714571521022000,9.72502197265625,-0.0273284912109375,-1.07281494140625,0.0696868896484375
1775714571531037700,9.73503759765625,0.002197265625,-1.08197021484375,0.0963592529296875
1775714571541054000,9.745053955078125,0.029510498046875,-1.0964813232421875,0.1267547607421875
1775714571551070000,9.755070068359375,0.0362548828125,-1.10009765625,0.1495819091796875
1775714571561087000,9.7650869140625,0.0086669921875,-1.0831146240234375,0.1475372314453125
1775714571571103000,9.77510302734375,-0.0356292724609375,-1.073822021484375,0.1190643310546875
1775714571581118700,9.78511865234375,-0.0771026611328125,-1.06689453125,0.090728759765625
1775714571591134700,9.795134765625,-0.108978271484375,-1.0589752197265625,0.0974578857421875
1775714571601151000,9.80515087890625,-0.13818359375,-1.0588226318359375,0.142547607421875
1775714571611167000,9.8151669921875,-0.1533355712890625,-1.0660552978515625,0.1962127685546875
1775714571621183000,9.825182861328125,-0.1455841064453125,-1.1009674072265625,0.24200439453125
1775714571631199000,9.835198974609375,-0.1117401123046875,-1.151611328125,0.2745513916015625
1775714571641214700,9.845214599609376,-0.0825042724609375,-1.1774444580078125,0.284088134765625
1775714571651232000,9.85523193359375,-0.0878448486328125,-1.2022247314453125,0.2680511474609375
1775714571661248000,9.865248046875,-0.1162872314453125,-1.23284912109375,0.233428955078125
1775714571671264000,9.875263916015625,-0.140228271484375,-1.24664306640625,0.2103424072265625
1775714571681280000,9.885280029296876,-0.186279296875,-1.27313232421875,0.188018798828125
1775714571691295700,9.895295654296875,-0.2168731689453125,-1.319732666015625,0.152618408203125
1775714571701311700,9.905311767578125,-0.21435546875,-1.3448944091796875,0.1263427734375
1775714571711327700,9.91532763671875,-0.2219696044921875,-1.3679046630859375,0.1238555908203125
1775714571721344000,9.925343994140626,-0.18914794921875,-1.3953857421875,0.1172027587890625
1775714571731361000,9.935361083984375,-0.139556884765625,-1.402374267578125,0.07867431640625
1775714571741376800,9.945376708984375,-0.1120452880859375,-1.4096221923828125,0.0474853515625
1775714571751392800,9.955392822265624,-0.11651611328125,-1.432464599609375,0.0587158203125
1775714571761408800,9.96540869140625,-0.137786865234375,-1.477783203125,0.1000518798828125
1775714571771425000,9.975425048828125,-0.1690826416015625,-1.512603759765625,0.113433837890625
1775714571781441000,9.98544091796875,-0.182159423828125,-1.526275634765625,0.092803955078125
1775714571791457000,9.99545703125,-0.188690185546875,-1.538421630859375,0.0518951416015625
1775714571801473000,10.00547314453125,-0.197052001953125,-1.546417236328125,0.010498046875
1775714571811488800,10.01548876953125,-0.21441650390625,-1.5396728515625,-0.0018157958984375
1775714571821505800,10.025505859375,-0.2488555908203125,-1.55645751953125,0.0328826904296875
1775714571831522000,10.03552197265625,-0.2566375732421875,-1.59771728515625,0.089874267578125
1775714571841538000,10.0455380859375,-0.222869873046875,-1.6205902099609375,0.1247406005859375
1775714571851553800,10.0555537109375,-0.1693878173828125,-1.641876220703125,0.120819091796875
1775714571861569800,10.06556982421875,-0.1241302490234375,-1.644317626953125,0.0914154052734375
1775714571871585800,10.075585693359375,-0.096221923828125,-1.599029541015625,0.0679779052734375
1775714571881601800,10.085601806640625,-0.0802764892578125,-1.5459442138671875,0.0917205810546875
1775714571891618000,10.0956181640625,-0.0761260986328125,-1.52972412109375,0.1498870849609375
1775714571901634000,10.105634033203126,-0.0751495361328125,-1.49517822265625,0.1858367919921875
1775714571911650800,10.11565087890625,-0.089111328125,-1.4449310302734375,0.1877899169921875
1775714571921666800,10.125666748046875,-0.1260223388671875,-1.404052734375,0.157440185546875
1775714571931682800,10.135682861328124,-0.1486968994140625,-1.3487396240234375,0.0904083251953125
1775714571941698600,10.145698486328126,-0.135986328125,-1.2865142822265625,0.03765869140625
1775714571951714800,10.15571484375,-0.109954833984375,-1.252899169921875,0.0441741943359375
1775714571961730800,10.165730712890625,-0.0500335693359375,-1.2194061279296875,0.065643310546875
1775714571971746600,10.17574658203125,-0.006256103515625,-1.1912384033203125,0.092132568359375
1775714571981762600,10.185762451171875,0.0007781982421875,-1.181060791015625,0.1168365478515625
1775714571991778600,10.195778564453125,0.0059967041015625,-1.159210205078125,0.1241455078125
1775714572001795800,10.2057958984375,0.0050811767578125,-1.1405181884765625,0.1221771240234375
1775714572011811800,10.215811767578124,-0.0170745849609375,-1.122344970703125,0.1188201904296875
1775714572021827600,10.22582763671875,-0.0260009765625,-1.09832763671875,0.1077728271484375
1775714572031843600,10.235843505859375,-0.0333099365234375,-1.065216064453125,0.088958740234375
1775714572041859600,10.245859619140624,-0.0331878662109375,-1.0290069580078125,0.057861328125
1775714572051875600,10.25587548828125,-0.0226287841796875,-0.9854736328125,0.0331573486328125
1775714572061891600,10.2658916015625,-0.0033111572265625,-0.9642486572265625,0.0483551025390625
1775714572071907800,10.275907958984375,0.0173187255859375,-0.9581451416015625,0.1020355224609375
1775714572081923800,10.285923828125,0.0334320068359375,-0.9574432373046875,0.1610107421875
1775714572091939600,10.295939697265625,0.0306243896484375,-0.9927215576171875,0.2047119140625
1775714572101956600,10.30595654296875,0.016937255859375,-1.0343170166015625,0.20501708984375
1775714572111972600,10.31597265625,0.02252197265625,-1.0418243408203125,0.1634063720703125
1775714572121988600,10.325988525390626,0.0341033935546875,-1.01873779296875,0.092041015625
1775714572132004900,10.3360048828125,0.0438995361328125,-0.9855804443359375,0.021026611328125
1775714572142020600,10.3460205078125,0.059295654296875,-0.9415130615234375,-0.0133514404296875
1775714572152036600,10.35603662109375,0.107818603515625,-0.884429931640625,0.028289794921875
1775714572162052600,10.366052490234376,0.1802215576171875,-0.8006134033203125,0.11376953125
1775714572172068600,10.376068603515625,0.247528076171875,-0.7016143798828125,0.204345703125
1775714572182084600,10.386084716796875,0.2104034423828125,-0.6586761474609375,0.3261566162109375
1775714572192100900,10.396100830078124,0.039154052734375,-0.7330474853515625,0.43218994140625
1775714572202117600,10.40611767578125,-0.15185546875,-0.8289947509765625,0.4166107177734375
1775714572212133600,10.416133544921875,-0.2559967041015625,-0.879730224609375,0.2930145263671875
1775714572222149600,10.426149658203125,-0.2353363037109375,-0.87744140625,0.10113525390625
1775714572232165600,10.43616552734375,-0.1534881591796875,-0.859954833984375,-0.07965087890625
1775714572242181600,10.446181640625,-0.0472412109375,-0.8336181640625,-0.1885528564453125
1775714572252197600,10.45619775390625,0.04046630859375,-0.7828216552734375,-0.2183074951171875
1775714572262213600,10.466213623046874,0.084228515625,-0.7249755859375,-0.1467437744140625
1775714572272229600,10.476229736328126,0.05255126953125,-0.708984375,0.021636962890625
1775714572282245600,10.48624560546875,-0.05224609375,-0.7210693359375,0.183746337890625
1775714572292261600,10.49626171875,-0.1936798095703125,-0.7668609619140625,0.2836151123046875
1775714572302278700,10.506278564453124,-0.296966552734375,-0.79156494140625,0.28594970703125
1775714572312294700,10.516294677734376,-0.3423919677734375,-0.7598419189453125,0.2194061279296875
1775714572322310700,10.526310546875,-0.345489501953125,-0.703948974609375,0.1323699951171875
1775714572332326700,10.53632666015625,-0.3101806640625,-0.6393585205078125,0.04248046875
1775714572342342700,10.5463427734375,-0.2825469970703125,-0.585540771484375,-0.029815673828125
1775714572352358700,10.556358642578125,-0.24359130859375,-0.5618896484375,-0.0415496826171875
1775714572362374700,10.566374755859375,-0.1681976318359375,-0.569091796875,0.0362091064453125
1775714572372390700,10.576390625,-0.085174560546875,-0.563140869140625,0.1688079833984375
1775714572382406700,10.58640673828125,-0.02679443359375,-0.5683746337890625,0.32269287109375
1775714572392422700,10.596422607421875,-0.0431060791015625,-0.6346435546875,0.4539337158203125
1775714572402438700,10.606438720703125,-0.082000732421875,-0.664276123046875,0.48358154296875
1775714572412455700,10.61645556640625,-0.110137939453125,-0.6661224365234375,0.451873779296875
1775714572422471700,10.6264716796875,-0.154937744140625,-0.67718505859375,0.4021148681640625
1775714572432487700,10.63648779296875,-0.1951904296875,-0.652923583984375,0.3307952880859375
1775714572442503700,10.646503662109374,-0.2353668212890625,-0.62066650390625,0.2314605712890625
1775714572452519700,10.656519775390626,-0.2445526123046875,-0.59942626953125,0.1460723876953125
1775714572462535700,10.66653564453125,-0.22674560546875,-0.5806884765625,0.112213134765625
1775714572472551700,10.6765517578125,-0.1955413818359375,-0.5600433349609375,0.1385955810546875
1775714572482567400,10.6865673828125,-0.185455322265625,-0.554962158203125,0.2242431640625
1775714572492583700,10.696583740234376,-0.24700927734375,-0.614898681640625,0.34088134765625
1775714572502599700,10.706599609375,-0.3333892822265625,-0.686676025390625,0.400390625
1775714572512615700,10.71661572265625,-0.37939453125,-0.738616943359375,0.39923095703125
1775714572522632700,10.7266328125,-0.348785400390625,-0.7602691650390625,0.362091064453125
1775714572532648400,10.7366484375,-0.27801513671875,-0.730194091796875,0.2954864501953125
1775714572542664700,10.746664794921875,-0.2297515869140625,-0.7226409912109375,0.2374114990234375
1775714572552680700,10.7566806640625,-0.186553955078125,-0.74346923828125,0.1708831787109375
1775714572562696700,10.76669677734375,-0.1637725830078125,-0.7573089599609375,0.1368560791015625
1775714572572712700,10.776712646484375,-0.176025390625,-0.78509521484375,0.1764984130859375
1775714572582728700,10.786728759765625,-0.190277099609375,-0.813140869140625,0.2519989013671875
1775714572592744700,10.79674462890625,-0.208465576171875,-0.8294219970703125,0.3464508056640625
1775714572602760400,10.806760498046875,-0.2353515625,-0.860748291015625,0.430145263671875
1775714572612776700,10.816776611328125,-0.234283447265625,-0.88311767578125,0.46990966796875
1775714572622792700,10.826792724609374,-0.2442779541015625,-0.8874053955078125,0.4728851318359375
1775714572632809700,10.836809814453124,-0.264495849609375,-0.904327392578125,0.448638916015625
1775714572642825700,10.84682568359375,-0.2685546875,-0.9052581787109375,0.38140869140625
1775714572652841500,10.856841552734375,-0.287139892578125,-0.9038238525390625,0.307373046875
1775714572662857700,10.866857666015624,-0.3272552490234375,-0.9260101318359375,0.2489166259765625
1775714572672873700,10.876873779296876,-0.3382720947265625,-0.94317626953125,0.21002197265625
1775714572682889700,10.8868896484375,-0.326324462890625,-0.955841064453125,0.2011871337890625
1775714572692905700,10.89690576171875,-0.287628173828125,-0.9807586669921875,0.214752197265625
1775714572702921700,10.906921630859374,-0.2468719482421875,-1.0041961669921875,0.24285888671875
1775714572712937500,10.9169375,-0.22137451171875,-1.0149383544921875,0.2665252685546875
1775714572722953500,10.926953369140625,-0.1904449462890625,-1.0159759521484375,0.267669677734375
1775714572732969700,10.9369697265625,-0.18011474609375,-1.010345458984375,0.26922607421875
1775714572742986800,10.94698681640625,-0.1968536376953125,-1.010833740234375,0.2787628173828125
1775714572753002800,10.957002685546875,-0.2154541015625,-1.00665283203125,0.284698486328125
1775714572763018500,10.9670185546875,-0.2496337890625,-0.999053955078125,0.27728271484375
1775714572773034500,10.977034423828124,-0.27960205078125,-0.991729736328125,0.2537689208984375
1775714572783050500,10.987050537109376,-0.2743988037109375,-0.9834747314453125,0.2273101806640625
1775714572793066800,10.997066650390625,-0.2601776123046875,-0.9723358154296875,0.2125091552734375
1775714572803082800,11.007082763671875,-0.258758544921875,-0.9676055908203125,0.2084197998046875
1775714572813098800,11.0170986328125,-0.2626495361328125,-0.967926025390625,0.2162322998046875
1775714572823114800,11.02711474609375,-0.266510009765625,-0.968475341796875,0.23486328125
1775714572833130500,11.037130615234375,-0.262481689453125,-0.980499267578125,0.25042724609375
1775714572843146500,11.047146484375,-0.265960693359375,-0.9813079833984375,0.2435760498046875
1775714572853162800,11.057162841796876,-0.2746124267578125,-0.9708404541015625,0.2264556884765625
1775714572863178800,11.0671787109375,-0.27532958984375,-0.9547119140625,0.2248077392578125
1775714572873195800,11.07719580078125,-0.2749481201171875,-0.945098876953125,0.2335968017578125
1775714572883211500,11.08721142578125,-0.285064697265625,-0.946014404296875,0.23272705078125
1775714572893227500,11.0972275390625,-0.285614013671875,-0.941375732421875,0.2154388427734375
1775714572903243500,11.107243408203125,-0.2723541259765625,-0.933563232421875,0.193603515625
1775714572913259800,11.117259765625,-0.272613525390625,-0.9275054931640625,0.190338134765625
1775714572923275800,11.12727587890625,-0.2885894775390625,-0.9303436279296875,0.19207763671875
1775714572933291800,11.137291748046875,-0.2835540771484375,-0.9425811767578125,0.18804931640625
1775714572943307800,11.147307861328125,-0.2822418212890625,-0.9454345703125,0.1843719482421875
1775714572953323800,11.15732373046875,-0.2832794189453125,-0.942901611328125,0.192291259765625
1775714572963339800,11.16733984375,-0.29119873046875,-0.942626953125,0.195770263671875
1775714572973356000,11.17735595703125,-0.2907867431640625,-0.939208984375,0.1985321044921875
1775714572983372000,11.1873720703125,-0.2814483642578125,-0.9377288818359375,0.20989990234375
1775714572993388000,11.197387939453124,-0.2728424072265625,-0.9325408935546875,0.218505859375
1775714573003404800,11.20740478515625,-0.2641143798828125,-0.92779541015625,0.214813232421875
1775714573013420800,11.2174208984375,-0.251678466796875,-0.923675537109375,0.217254638671875
1775714573023436800,11.227436767578125,-0.251312255859375,-0.9242401123046875,0.2277374267578125
1775714573033453000,11.237453125,-0.255523681640625,-0.928070068359375,0.2395782470703125
1775714573043469000,11.247468994140625,-0.257415771484375,-0.92626953125,0.2514190673828125
1775714573053484800,11.25748486328125,-0.2622833251953125,-0.9203033447265625,0.2632904052734375
1775714573063500800,11.267500732421874,-0.2704925537109375,-0.9179840087890625,0.2630462646484375
1775714573073516800,11.277516845703126,-0.2708740234375,-0.920989990234375,0.25799560546875
1775714573083532800,11.28753271484375,-0.268463134765625,-0.9320220947265625,0.248687744140625
1775714573093549000,11.297549072265625,-0.253387451171875,-0.932220458984375,0.2239227294921875
1775714573103565000,11.30756494140625,-0.251953125,-0.929534912109375,0.2051849365234375
1775714573113581000,11.3175810546875,-0.2619781494140625,-0.9370269775390625,0.201324462890625
1775714573123596800,11.3275966796875,-0.258514404296875,-0.933837890625,0.1953582763671875
1775714573133613800,11.33761376953125,-0.2549591064453125,-0.9176788330078125,0.184967041015625
1775714573143629800,11.3476298828125,-0.2562255859375,-0.9130096435546875,0.19134521484375
1775714573153646000,11.35764599609375,-0.2541961669921875,-0.9170379638671875,0.2119598388671875
1775714573163662000,11.367662109375,-0.2517852783203125,-0.9121246337890625,0.2314605712890625
1775714573173677800,11.377677734375,-0.2689361572265625,-0.9189605712890625,0.253753662109375
1775714573183693800,11.38769384765625,-0.2931976318359375,-0.9312286376953125,0.2660675048828125
1775714573193709800,11.397709716796875,-0.2938079833984375,-0.935028076171875,0.259368896484375
1775714573203725800,11.407725830078125,-0.2894744873046875,-0.9360809326171875,0.239501953125
1775714573213742000,11.4177421875,-0.280731201171875,-0.9304656982421875,0.2144775390625
1775714573223758000,11.427758056640625,-0.2689208984375,-0.9287872314453125,0.1905059814453125
1775714573233773800,11.43777392578125,-0.2519073486328125,-0.92718505859375,0.1864471435546875
1775714573243789800,11.447789794921874,-0.25347900390625,-0.9368896484375,0.2090911865234375
1775714573253805800,11.457805908203126,-0.266326904296875,-0.941436767578125,0.246185302734375
1775714573263821800,11.46782177734375,-0.287750244140625,-0.9506988525390625,0.2636871337890625
1775714573273839000,11.477839111328125,-0.301239013671875,-0.9595794677734375,0.2597198486328125
1775714573283854800,11.487854736328124,-0.3052520751953125,-0.963226318359375,0.2518157958984375
1775714573293870800,11.497870849609376,-0.3070526123046875,-0.95550537109375,0.2362518310546875
1775714573303886800,11.507886962890625,-0.2940673828125,-0.948638916015625,0.2173614501953125
1775714573313902800,11.51790283203125,-0.2840728759765625,-0.94403076171875,0.2089691162109375
1775714573323918800,11.5279189453125,-0.2737579345703125,-0.941986083984375,0.22113037109375
1775714573333934800,11.537934814453125,-0.2816314697265625,-0.9480743408203125,0.240966796875
1775714573343951000,11.547951171875,-0.2924346923828125,-0.9566497802734375,0.24749755859375
1775714573353966800,11.557966796875,-0.2986297607421875,-0.958282470703125,0.2447967529296875
1775714573363982800,11.56798291015625,-0.2993316650390625,-0.955108642578125,0.2478790283203125
1775714573373998800,11.577998779296875,-0.3028106689453125,-0.9573974609375,0.247711181640625
1775714573384014800,11.588014892578125,-0.2980804443359375,-0.9603271484375,0.2338104248046875
1775714573394030800,11.59803076171875,-0.283447265625,-0.954376220703125,0.2159423828125
1775714573404047000,11.608047119140625,-0.2845306396484375,-0.9488067626953125,0.2041168212890625
1775714573414063000,11.61806298828125,-0.2963409423828125,-0.9439239501953125,0.201141357421875
1775714573424080000,11.628079833984375,-0.2984771728515625,-0.940582275390625,0.201019287109375
1775714573434095900,11.638095947265626,-0.2955780029296875,-0.9411773681640625,0.2096710205078125
1775714573444112000,11.64811181640625,-0.294525146484375,-0.9440460205078125,0.2322540283203125
1775714573454127900,11.6581279296875,-0.283111572265625,-0.9521942138671875,0.250030517578125
1775714573464144000,11.668143798828124,-0.27239990234375,-0.95941162109375,0.2546539306640625
1775714573474159900,11.678159912109376,-0.264862060546875,-0.9584197998046875,0.256011962890625
1775714573484176000,11.68817578125,-0.2673492431640625,-0.9577484130859375,0.2549896240234375
1775714573494191900,11.69819189453125,-0.2669677734375,-0.95501708984375,0.2445526123046875
1775714573504208000,11.708207763671876,-0.2548675537109375,-0.949493408203125,0.22637939453125
1775714573514223900,11.718223876953125,-0.24053955078125,-0.9401702880859375,0.2082366943359375
1775714573524240100,11.728240234375,-0.2313995361328125,-0.9332427978515625,0.1917877197265625
1775714573534255900,11.738255859375,-0.2348480224609375,-0.938873291015625,0.1858062744140625
1775714573544272000,11.74827197265625,-0.2453765869140625,-0.952362060546875,0.1987457275390625
1775714573554287900,11.758287841796875,-0.2541961669921875,-0.9525604248046875,0.2160491943359375
1775714573564304000,11.768303955078125,-0.25823974609375,-0.95635986328125,0.229583740234375
1775714573574319900,11.77831982421875,-0.2565155029296875,-0.9622802734375,0.235931396484375
1775714573584337000,11.7883369140625,-0.2541046142578125,-0.96087646484375,0.236114501953125
1775714573594353000,11.798352783203125,-0.2505950927734375,-0.9539337158203125,0.232330322265625
1775714573604369000,11.808368896484374,-0.252349853515625,-0.947113037109375,0.2247161865234375
1775714573614385000,11.818385009765626,-0.2467803955078125,-0.9429931640625,0.2073516845703125
1775714573624401000,11.82840087890625,-0.2345733642578125,-0.945281982421875,0.1852264404296875
1775714573634417000,11.8384169921875,-0.2399749755859375,-0.9452056884765625,0.1757354736328125
1775714573644433000,11.848432861328124,-0.250457763671875,-0.955352783203125,0.17864990234375
1775714573654449000,11.858448974609376,-0.258880615234375,-0.9679718017578125,0.18853759765625
1775714573664465000,11.86846484375,-0.2566986083984375,-0.97705078125,0.2115478515625
1775714573674481000,11.87848095703125,-0.2492828369140625,-0.9851837158203125,0.2276153564453125
1775714573684497000,11.888496826171876,-0.2484130859375,-0.9844207763671875,0.2290496826171875
1775714573694513000,11.898512939453125,-0.2452239990234375,-0.9882659912109375,0.22052001953125
1775714573704529000,11.90852880859375,-0.2411041259765625,-0.99169921875,0.20770263671875
1775714573714545000,11.918544921875,-0.2579498291015625,-0.99908447265625,0.19317626953125
1775714573724561000,11.928560791015625,-0.2805633544921875,-1.0051116943359375,0.165557861328125
1775714573734577000,11.938576904296875,-0.3034820556640625,-1.038848876953125,0.1634063720703125
1775714573744593000,11.948593017578125,-0.322265625,-1.0904541015625,0.17987060546875
1775714573754609000,11.95860888671875,-0.3054962158203125,-1.128509521484375,0.2141876220703125
1775714573764625700,11.968625732421875,-0.284454345703125,-1.1512451171875,0.2643585205078125
1775714573774642000,11.978641845703125,-0.2688446044921875,-1.1569671630859375,0.3098297119140625
1775714573784658000,11.988657958984374,-0.2606658935546875,-1.1395263671875,0.330657958984375
1775714573794674000,11.998673828125,-0.260467529296875,-1.116241455078125,0.34259033203125
1775714573804690000,12.00868994140625,-0.26904296875,-1.082000732421875,0.3424530029296875
1775714573814706000,12.018705810546875,-0.277252197265625,-1.0371856689453125,0.323516845703125
1775714573824722000,12.028721923828124,-0.2783203125,-0.9879608154296875,0.3231048583984375
1775714573834738000,12.038738037109376,-0.26715087890625,-0.9315185546875,0.3262481689453125
1775714573844754000,12.04875390625,-0.2427520751953125,-0.887054443359375,0.33319091796875
1775714573854770000,12.05877001953125,-0.22869873046875,-0.8585357666015625,0.3669281005859375
1775714573864786000,12.068785888671876,-0.209014892578125,-0.827178955078125,0.41180419921875
1775714573874802000,12.078802001953125,-0.173553466796875,-0.7910003662109375,0.42767333984375
1775714573884818000,12.08881787109375,-0.1410369873046875,-0.75250244140625,0.4034881591796875
1775714573894834000,12.098833984375,-0.1010589599609375,-0.7143096923828125,0.346038818359375
1775714573904850000,12.108849853515625,-0.0472259521484375,-0.693328857421875,0.300201416015625
1775714573914866000,12.118865966796875,0.0203399658203125,-0.679656982421875,0.3096466064453125
1775714573924882000,12.1288818359375,0.06280517578125,-0.651702880859375,0.3343048095703125
1775714573934898000,12.13889794921875,0.0867156982421875,-0.625518798828125,0.3426666259765625
1775714573944913700,12.14891357421875,0.090057373046875,-0.6118621826171875,0.3468170166015625
1775714573954930400,12.158930419921875,0.0703277587890625,-0.591094970703125,0.330535888671875
1775714573964946400,12.168946533203124,0.04022216796875,-0.5821990966796875,0.314666748046875
1775714573974962400,12.17896240234375,-0.000274658203125,-0.587677001953125,0.279815673828125
1775714573984978400,12.188978515625,-0.0158843994140625,-0.5818939208984375,0.2099609375
1775714573994994700,12.19899462890625,-0.0065460205078125,-0.5731201171875,0.145721435546875
1775714574005010700,12.2090107421875,0.008636474609375,-0.5597686767578125,0.1105804443359375
1775714574015026700,12.219026611328125,0.011962890625,-0.548614501953125,0.098968505859375
1775714574025042400,12.22904248046875,-0.0042266845703125,-0.5572509765625,0.0810699462890625
1775714574035058400,12.239058349609374,-0.02813720703125,-0.5787353515625,0.052093505859375
1775714574045074400,12.249074462890626,-0.0422515869140625,-0.580841064453125,0.024810791015625
1775714574055090400,12.25909033203125,-0.0266571044921875,-0.5869903564453125,0.025970458984375
1775714574065106700,12.269106689453125,-0.0182952880859375,-0.6063690185546875,0.025848388671875
1775714574075122700,12.279122802734374,-0.026092529296875,-0.6466064453125,0.027740478515625
1775714574085138400,12.289138427734375,-0.044189453125,-0.6977691650390625,0.0377349853515625
1775714574095154400,12.299154541015625,-0.0418701171875,-0.7212677001953125,0.0523681640625
1775714574105170400,12.30917041015625,-0.0588226318359375,-0.7217559814453125,0.06341552734375
1775714574115186400,12.3191865234375,-0.08984375,-0.7152252197265625,0.0893707275390625
1775714574125202400,12.329202392578125,-0.119781494140625,-0.696685791015625,0.125213623046875
1775714574135218700,12.33921875,-0.16162109375,-0.636322021484375,0.1667633056640625
1775714574145234700,12.349234619140624,-0.248748779296875,-0.5885162353515625,0.2083892822265625
1775714574155250400,12.35925048828125,-0.328887939453125,-0.5925750732421875,0.2599029541015625
1775714574165266400,12.369266357421875,-0.34942626953125,-0.6185455322265625,0.3165740966796875
1775714574175282400,12.379282470703124,-0.3043670654296875,-0.641326904296875,0.356964111328125
1775714574185298400,12.38929833984375,-0.21282958984375,-0.664886474609375,0.393463134765625
1775714574195315700,12.399315673828125,-0.0920562744140625,-0.69439697265625,0.419921875
1775714574205331500,12.40933154296875,0.009185791015625,-0.69921875,0.4135589599609375
1775714574215347500,12.419347412109374,0.0759124755859375,-0.7077178955078125,0.4242401123046875
1775714574225363500,12.429363525390626,0.0968475341796875,-0.7026519775390625,0.4378814697265625
1775714574235379500,12.43937939453125,0.08245849609375,-0.7010345458984375,0.433624267578125
1775714574245395500,12.4493955078125,0.083587646484375,-0.7293701171875,0.430938720703125
1775714574255411700,12.45941162109375,0.1104888916015625,-0.7245330810546875,0.4164886474609375
1775714574265427700,12.469427734375,0.1854248046875,-0.692626953125,0.411376953125
1775714574275443500,12.479443359375,0.3061065673828125,-0.7010040283203125,0.477081298828125
1775714574285459500,12.48945947265625,0.489501953125,-0.7937164306640625,0.6283721923828125
1775714574295475500,12.499475341796876,0.639495849609375,-0.8767852783203125,0.8044586181640625
1775714574305491500,12.509491455078125,0.712371826171875,-0.913665771484375,0.8961029052734375
1775714574315507500,12.519507568359375,0.7252197265625,-0.93597412109375,0.928466796875
1775714574325523700,12.529523681640624,0.6722412109375,-0.932952880859375,0.9329376220703125
1775714574335539500,12.53953955078125,0.5580902099609375,-0.94171142578125,0.8642425537109375
1775714574345555500,12.549555419921875,0.4984130859375,-0.9576568603515625,0.7357025146484375
1775714574355571500,12.559571533203124,0.46685791015625,-0.9482269287109375,0.60748291015625
1775714574365587500,12.56958740234375,0.4011077880859375,-0.9126739501953125,0.4836578369140625
1775714574375603500,12.579603515625,0.3240509033203125,-0.9068145751953125,0.353973388671875
1775714574385619700,12.58961962890625,0.22943115234375,-0.9164886474609375,0.18914794921875
1775714574395635700,12.5996357421875,0.1734161376953125,-0.9799346923828125,0.07135009765625
1775714574405651500,12.6096513671875,0.153076171875,-1.037811279296875,0.0135955810546875
1775714574415667500,12.61966748046875,0.152984619140625,-1.0591278076171875,-0.000457763671875
1775714574425683500,12.629683349609374,0.1670989990234375,-1.06280517578125,-0.0134124755859375
1775714574435699500,12.639699462890626,0.1301116943359375,-1.074462890625,-0.031005859375
1775714574445715500,12.649715576171875,0.062744140625,-1.1153411865234375,-0.0238494873046875
1775714574455732500,12.659732421875,0.0154266357421875,-1.14862060546875,-0.013824462890625
1775714574465748500,12.66974853515625,-0.0088653564453125,-1.13848876953125,-0.0107421875
1775714574475764500,12.679764404296876,-0.064422607421875,-1.0812530517578125,-0.0025787353515625
1775714574485780500,12.689780517578125,-0.097900390625,-1.0156402587890625,0.0308837890625
1775714574495796500,12.69979638671875,-0.1016693115234375,-0.9814910888671875,0.093536376953125
1775714574505812700,12.709812744140624,-0.093048095703125,-0.982696533203125,0.1679840087890625
1775714574515828700,12.719828857421875,-0.10333251953125,-0.9930419921875,0.2363739013671875
1775714574525844500,12.729844482421875,-0.1338958740234375,-1.005706787109375,0.297821044921875
1775714574535860500,12.739860595703124,-0.1397247314453125,-1.005645751953125,0.3467254638671875
1775714574545876500,12.74987646484375,-0.09344482421875,-0.989959716796875,0.36614990234375
1775714574555892500,12.759892578125,-0.010986328125,-0.973876953125,0.37109375
1775714574565908500,12.769908447265625,0.03350830078125,-0.950164794921875,0.3606719970703125
1775714574575924700,12.7799248046875,0.0548553466796875,-0.918914794921875,0.3107452392578125
1775714574585940500,12.7899404296875,0.03656005859375,-0.9394073486328125,0.2588653564453125
1775714574595956500,12.79995654296875,0.045684814453125,-0.966156005859375,0.2519073486328125
1775714574605972500,12.809972412109374,0.07684326171875,-0.964385986328125,0.2762451171875
1775714574615988500,12.819988525390626,0.07061767578125,-0.998779296875,0.3226776123046875
1775714574626004500,12.83000439453125,0.0380859375,-1.06988525390625,0.3467559814453125
1775714574636020500,12.8400205078125,0.0083770751953125,-1.1293487548828125,0.317291259765625
1775714574646036700,12.85003662109375,-0.00146484375,-1.1680145263671875,0.2598724365234375
1775714574656052500,12.860052490234375,0.0225982666015625,-1.1914215087890625,0.19122314453125
1775714574666068500,12.870068359375,0.05279541015625,-1.1996917724609375,0.1317291259765625
1775714574676084500,12.88008447265625,0.08001708984375,-1.193145751953125,0.082061767578125
1775714574686100500,12.8901005859375,0.077178955078125,-1.15936279296875,0.051849365234375
1775714574696116500,12.900116455078125,0.032318115234375,-1.1604461669921875,0.0865478515625
1775714574706132500,12.910132568359375,-0.014892578125,-1.1909027099609375,0.152130126953125
1775714574716148700,12.920148681640624,-0.0888671875,-1.2176666259765625,0.19091796875
1775714574726164500,12.93016455078125,-0.182037353515625,-1.2572174072265625,0.1920013427734375
1775714574736180500,12.940180419921875,-0.2433319091796875,-1.30364990234375,0.1592254638671875
1775714574746196500,12.950196533203124,-0.234039306640625,-1.3250579833984375,0.1049041748046875
1775714574756212500,12.96021240234375,-0.1738739013671875,-1.34014892578125,0.0809173583984375
1775714574766228500,12.970228515625,-0.122344970703125,-1.341094970703125,0.0667266845703125
